TrialN,Angle,AbsAngle,Shape,Face,PosOfStnStm,StdIdentity,TrialType,IsCorrect,RT,participant,IsOutlier
1,80,80,human,absent,right,original,same,1,0.838316643,1,0
2,-160,160,snake,absent,right,original,diff,1,2.496554393,1,0
3,-40,40,snake,present,right,mirror,same,1,0.704743331,1,0
4,0,0,human,absent,left,mirror,diff,1,0.61786997,1,0
5,120,120,snake,present,right,mirror,same,1,0.874914439,1,0
6,40,40,human,absent,left,original,same,1,0.659763904,1,0
7,160,160,human,present,right,mirror,diff,1,1.32531443,1,0
8,-40,40,human,present,right,original,diff,0,0.956313701,1,0
9,-80,80,snake,present,left,original,same,1,0.661796223,1,0
10,80,80,snake,absent,right,original,same,1,0.844706069,1,0
11,40,40,human,present,left,mirror,diff,1,0.670204111,1,0
12,0,0,human,absent,left,original,diff,1,0.781827789,1,0
13,-120,120,human,present,right,original,same,1,0.772581155,1,0
14,80,80,human,absent,right,mirror,diff,1,0.777884951,1,0
15,120,120,human,present,left,mirror,same,1,1.056201127,1,0
16,40,40,snake,present,right,mirror,same,1,0.656650331,1,0
17,-80,80,human,absent,right,mirror,same,1,0.758830087,1,0
18,40,40,human,present,right,original,diff,1,0.679369058,1,0
19,120,120,human,present,right,original,diff,1,1.437627339,1,0
20,40,40,snake,absent,left,original,same,1,0.697696401,1,0
21,-160,160,snake,absent,left,original,same,1,1.658185602,1,0
22,160,160,snake,absent,left,mirror,same,1,1.457585497,1,0
23,160,160,human,absent,left,original,diff,1,1.285296006,1,0
24,-40,40,snake,absent,left,mirror,same,1,1.140361689,1,0
25,0,0,human,present,right,mirror,diff,1,0.68269633,1,0
26,120,120,snake,present,left,original,same,1,0.96218274,1,0
27,40,40,human,present,left,original,diff,1,0.654776644,1,0
28,40,40,snake,present,left,original,diff,1,0.75971697,1,0
29,160,160,snake,absent,right,mirror,same,1,1.283130582,1,0
30,160,160,human,present,left,original,diff,1,1.908400849,1,0
31,40,40,snake,present,left,original,same,1,0.584549485,1,0
32,-80,80,human,present,right,original,diff,1,0.806991646,1,0
33,-120,120,snake,present,right,original,diff,1,1.380020035,1,0
34,80,80,snake,present,right,original,diff,1,1.896946124,1,0
35,-120,120,human,present,right,mirror,same,1,2.765794966,1,0
36,0,0,snake,absent,right,original,diff,1,0.807195133,1,0
37,120,120,human,present,left,original,same,1,1.054778905,1,0
38,-120,120,human,present,left,original,same,1,1.033786901,1,0
39,120,120,snake,present,left,mirror,diff,1,1.058350142,1,0
40,-160,160,snake,absent,right,mirror,same,1,1.82024603,1,0
41,-120,120,snake,absent,left,mirror,same,1,1.049825559,1,0
42,-80,80,snake,absent,left,mirror,same,1,0.953933849,1,0
43,80,80,human,present,right,original,same,1,0.738273137,1,0
44,80,80,snake,present,left,original,same,1,0.61041169,1,0
45,-120,120,snake,present,left,original,same,1,0.60091562,1,0
46,80,80,human,present,right,mirror,diff,1,0.72321946,1,0
47,160,160,human,absent,right,original,diff,1,1.302329856,1,0
48,160,160,human,absent,right,mirror,same,0,1.663813591,1,0
49,40,40,snake,present,left,mirror,diff,1,1.278533156,1,0
50,160,160,human,absent,right,mirror,diff,0,1.995862427,1,0
51,160,160,snake,absent,right,original,same,1,1.975811642,1,0
52,-40,40,human,present,right,mirror,diff,1,1.378834485,1,0
53,-160,160,human,absent,right,mirror,diff,1,2.602144566,1,0
54,120,120,human,present,left,mirror,diff,1,0.990390881,1,0
55,120,120,human,absent,left,original,diff,1,1.511980766,1,0
56,-120,120,snake,absent,left,original,diff,1,3.252060855,1,0
57,-160,160,snake,absent,right,mirror,diff,1,2.041182822,1,0
58,40,40,human,absent,right,mirror,diff,1,1.13978186,1,0
59,40,40,snake,absent,right,mirror,same,1,1.11419316,1,0
60,-80,80,human,present,right,original,same,1,2.726193728,1,0
61,-40,40,snake,present,left,mirror,diff,1,0.887828219,1,0
62,0,0,human,absent,left,mirror,same,1,1.856177934,1,0
63,-80,80,human,present,left,mirror,same,1,0.771348198,1,0
64,0,0,human,present,left,original,same,1,0.660874331,1,0
65,120,120,snake,absent,right,original,diff,1,1.293349797,1,0
66,160,160,snake,present,left,mirror,diff,1,2.240947463,1,0
67,120,120,snake,present,left,mirror,same,1,0.955798055,1,0
68,120,120,human,present,left,original,diff,1,1.165397546,1,0
69,-80,80,snake,present,right,original,diff,1,0.89040463,1,0
70,-160,160,human,present,left,original,same,1,0.96018397,1,0
71,-120,120,snake,absent,right,original,diff,1,1.310448923,1,0
72,40,40,human,absent,right,original,diff,1,2.158029704,1,0
73,-120,120,snake,absent,right,mirror,diff,1,1.793852133,1,0
74,-40,40,snake,present,right,original,same,1,0.874736843,1,0
75,120,120,human,absent,right,mirror,diff,1,0.941872673,1,0
76,-160,160,human,absent,left,original,diff,1,1.327494077,1,0
77,160,160,human,present,left,mirror,diff,1,1.490571577,1,0
78,-40,40,human,present,right,mirror,same,1,0.78851807,1,0
79,160,160,snake,absent,left,original,diff,1,1.586979663,1,0
80,-160,160,snake,present,left,mirror,diff,1,1.697727398,1,0
81,80,80,human,absent,left,mirror,diff,1,0.90846175,1,0
82,-80,80,human,absent,left,mirror,diff,1,0.954967695,1,0
83,-160,160,snake,present,left,original,diff,1,1.733840909,1,0
84,160,160,snake,present,right,original,same,1,1.471160428,1,0
85,-160,160,snake,absent,left,mirror,diff,1,1.406695823,1,0
86,120,120,snake,present,right,mirror,diff,1,0.960636528,1,0
87,-120,120,human,present,left,mirror,same,1,1.140199775,1,0
88,-120,120,snake,absent,left,mirror,diff,1,1.060103851,1,0
89,160,160,snake,present,left,original,same,1,1.16107326,1,0
90,-120,120,snake,present,left,mirror,same,1,1.510638407,1,0
91,40,40,snake,present,right,mirror,diff,1,0.850808132,1,0
92,40,40,human,present,left,mirror,same,1,0.971674069,1,0
93,120,120,snake,present,left,original,diff,1,1.307349572,1,0
94,0,0,snake,absent,right,mirror,diff,1,0.941460958,1,0
95,80,80,snake,absent,right,mirror,diff,1,0.902620062,1,0
96,-120,120,human,absent,left,mirror,same,1,1.038155676,1,0
97,-80,80,snake,present,right,mirror,same,1,1.132552959,1,0
98,40,40,snake,absent,left,mirror,diff,1,1.226018138,1,0
99,-160,160,snake,present,left,mirror,same,1,1.191094918,1,0
100,-120,120,snake,present,left,original,diff,1,0.718877305,1,0
101,80,80,snake,present,right,original,same,1,0.834571457,1,0
102,-160,160,human,present,right,original,diff,1,1.220510126,1,0
103,-160,160,snake,absent,left,original,diff,1,2.676186927,1,0
104,-40,40,snake,absent,right,mirror,diff,1,0.976379073,1,0
105,-40,40,human,present,right,original,same,1,0.708995776,1,0
106,160,160,snake,present,left,original,diff,1,0.701371569,1,0
107,-40,40,snake,absent,left,original,diff,1,0.807608307,1,0
108,120,120,human,absent,right,mirror,same,1,1.678607987,1,0
109,-120,120,human,present,left,original,diff,1,0.87593771,1,0
110,40,40,snake,absent,left,original,diff,1,0.765390179,1,0
111,-40,40,human,absent,right,mirror,diff,1,0.883580879,1,0
112,0,0,snake,present,left,original,same,1,0.678206483,1,0
113,40,40,human,absent,left,original,diff,1,0.575345883,1,0
114,-120,120,human,absent,left,original,same,1,1.287992394,1,0
115,-120,120,human,present,right,original,diff,1,0.664829204,1,0
116,-80,80,human,present,left,original,diff,1,0.720247744,1,0
117,-80,80,human,present,right,mirror,same,1,0.754822337,1,0
118,-160,160,snake,present,right,mirror,diff,1,0.887050737,1,0
119,0,0,snake,present,left,mirror,same,1,0.739088545,1,0
120,0,0,snake,present,right,original,diff,1,0.584810591,1,0
121,-40,40,human,absent,left,original,diff,1,0.751003123,1,0
122,-40,40,human,present,left,original,same,1,0.607213148,1,0
123,0,0,snake,present,right,mirror,same,1,0.88121452,1,0
124,80,80,snake,absent,left,mirror,same,1,0.852164349,1,0
125,-80,80,snake,absent,right,mirror,diff,1,1.025938056,1,0
126,40,40,snake,absent,right,mirror,diff,1,0.851728201,1,0
127,-160,160,snake,present,left,original,same,1,1.358438356,1,0
128,160,160,human,present,left,mirror,same,1,1.337982056,1,0
129,-80,80,human,present,left,mirror,diff,1,0.869658415,1,0
130,-120,120,human,absent,left,original,diff,1,1.213114933,1,0
131,-40,40,human,absent,right,original,same,1,0.772775161,1,0
132,160,160,human,absent,left,mirror,same,1,1.385735181,1,0
133,80,80,snake,absent,right,mirror,same,1,0.692933049,1,0
134,160,160,snake,absent,left,original,same,1,1.278395675,1,0
135,-160,160,human,absent,right,original,same,1,0.752953026,1,0
136,-80,80,snake,absent,left,mirror,diff,1,0.834276437,1,0
137,0,0,human,absent,right,mirror,same,1,0.70015247,1,0
138,80,80,human,absent,left,original,same,1,0.851701215,1,0
139,40,40,snake,absent,left,mirror,same,1,1.580655149,1,0
140,120,120,human,absent,right,original,diff,1,0.792790937,1,0
141,-120,120,snake,absent,right,mirror,same,1,0.918225125,1,0
142,40,40,snake,absent,right,original,diff,1,0.770798636,1,0
143,80,80,human,absent,left,mirror,same,1,0.89977817,1,0
144,-120,120,snake,absent,left,original,same,1,0.842902763,1,0
145,80,80,human,absent,left,original,diff,1,1.323296332,1,0
146,120,120,snake,present,right,original,diff,1,1.569361243,1,0
147,0,0,human,present,right,original,diff,1,0.785003357,1,0
148,-80,80,human,present,right,mirror,diff,1,1.064072217,1,0
149,160,160,snake,present,right,original,diff,1,1.437592331,1,0
150,-80,80,human,absent,right,original,same,1,0.795803496,1,0
151,-160,160,human,absent,left,original,same,1,0.969395231,1,0
152,-80,80,human,present,left,original,same,1,0.707056448,1,0
153,-80,80,snake,absent,left,original,same,1,0.592717419,1,0
154,-40,40,human,present,left,original,diff,1,0.585420688,1,0
155,-160,160,snake,present,right,mirror,same,1,1.529261134,1,0
156,160,160,human,present,left,original,same,1,1.074902988,1,0
157,0,0,human,present,left,mirror,same,1,0.616203053,1,0
158,-40,40,snake,present,right,mirror,diff,1,0.651461407,1,0
159,80,80,human,absent,right,mirror,same,1,0.773311229,1,0
160,160,160,human,present,right,mirror,same,1,1.343526536,1,0
161,-40,40,snake,absent,right,original,diff,1,1.06442522,1,0
162,-40,40,snake,absent,left,mirror,diff,1,0.773478979,1,0
163,-160,160,snake,present,right,original,diff,1,1.240233434,1,0
164,-40,40,snake,present,left,original,diff,1,2.472462673,1,0
165,120,120,snake,absent,right,mirror,diff,1,2.46035409,1,0
166,-120,120,snake,present,right,mirror,same,1,0.790107312,1,0
167,80,80,snake,present,right,mirror,same,1,0.807587156,1,0
168,-160,160,human,absent,left,mirror,diff,1,1.291925022,1,0
169,-40,40,human,absent,left,mirror,same,1,0.74763829,1,0
170,-80,80,human,absent,left,original,diff,1,1.121597105,1,0
171,-40,40,human,present,left,mirror,same,1,0.696831033,1,0
172,80,80,human,present,left,mirror,diff,1,0.702860527,1,0
173,80,80,human,present,right,original,diff,1,0.982093125,1,0
174,120,120,snake,present,right,original,same,1,1.226367494,1,0
175,0,0,snake,present,right,original,same,1,0.541947358,1,0
176,-40,40,human,absent,left,mirror,diff,1,0.707231491,1,0
177,-160,160,human,present,left,mirror,diff,1,0.993880797,1,0
178,-80,80,snake,present,left,mirror,same,1,0.739779599,1,0
179,-160,160,snake,absent,right,original,same,1,1.242238768,1,0
180,-80,80,snake,absent,right,original,diff,1,1.527365931,1,0
181,160,160,snake,present,right,mirror,diff,1,2.119701902,1,0
182,0,0,snake,present,right,mirror,diff,1,0.917190914,1,0
183,-120,120,human,absent,right,mirror,diff,1,1.638989245,1,0
184,40,40,human,present,left,original,same,1,0.737766607,1,0
185,0,0,snake,absent,right,mirror,same,1,0.938746701,1,0
186,120,120,human,present,right,mirror,same,1,0.927843725,1,0
187,80,80,snake,absent,right,original,diff,1,0.985068123,1,0
188,-160,160,snake,absent,left,mirror,same,1,1.59071172,1,0
189,160,160,human,present,right,original,same,0,1.019716744,1,0
190,-160,160,human,present,right,mirror,same,1,0.973675756,1,0
191,160,160,human,present,right,original,diff,1,1.146357634,1,0
192,0,0,snake,absent,left,mirror,same,1,1.447577062,1,0
193,-80,80,snake,present,left,mirror,diff,1,0.789840007,1,0
194,-80,80,human,absent,left,mirror,same,1,0.80372491,1,0
195,40,40,human,absent,left,mirror,same,1,0.656785624,1,0
196,40,40,human,present,right,mirror,diff,1,1.009081802,1,0
197,0,0,human,absent,left,original,same,1,0.777184051,1,0
198,160,160,snake,absent,right,original,diff,1,1.182188159,1,0
199,-40,40,human,absent,right,original,diff,1,0.999548536,1,0
200,160,160,snake,present,right,mirror,same,0,1.299654619,1,0
201,-160,160,human,present,left,mirror,same,1,1.656665282,1,0
202,-120,120,snake,present,right,original,same,1,0.724182559,1,0
203,160,160,snake,present,left,mirror,same,1,2.017024368,1,0
204,40,40,human,absent,left,mirror,diff,1,0.808098791,1,0
205,120,120,human,absent,left,original,same,1,1.707661075,1,0
206,-120,120,human,absent,right,original,diff,1,0.799387861,1,0
207,-80,80,snake,absent,right,original,same,1,0.707991833,1,0
208,160,160,snake,absent,left,mirror,diff,1,1.447514338,1,0
209,-120,120,human,present,right,mirror,diff,1,0.92823283,1,0
210,120,120,human,absent,right,original,same,1,0.995210392,1,0
211,0,0,snake,present,left,mirror,diff,1,0.635596697,1,0
212,-40,40,snake,absent,right,original,same,1,1.007912662,1,0
213,0,0,human,absent,right,original,same,1,0.693834884,1,0
214,160,160,snake,absent,right,mirror,diff,1,0.981231039,1,0
215,-120,120,snake,present,right,mirror,diff,1,0.872801162,1,0
216,-40,40,human,present,left,mirror,diff,1,0.873657048,1,0
217,-160,160,human,absent,left,mirror,same,1,1.952519649,1,0
218,80,80,snake,absent,left,original,diff,1,0.74765543,1,0
219,40,40,snake,present,right,original,same,1,0.629747351,1,0
220,80,80,human,present,left,original,same,1,0.627541083,1,0
221,-80,80,snake,absent,left,original,diff,1,0.692295237,1,0
222,80,80,snake,present,left,mirror,diff,1,0.724285762,1,0
223,120,120,human,absent,left,mirror,same,1,0.961761178,1,0
224,-40,40,snake,present,right,original,diff,1,0.694061346,1,0
225,0,0,snake,absent,left,original,same,1,0.593572575,1,0
226,-40,40,human,absent,right,mirror,same,1,0.707136676,1,0
227,80,80,snake,absent,left,original,same,1,0.761996538,1,0
228,-40,40,human,absent,left,original,same,1,0.544970493,1,0
229,0,0,human,present,right,mirror,same,1,0.663292474,1,0
230,0,0,snake,absent,left,mirror,diff,1,0.596008587,1,0
231,-80,80,snake,present,right,original,same,1,0.809307316,1,0
232,40,40,human,present,right,mirror,same,1,0.645035149,1,0
233,0,0,human,present,right,original,same,1,0.565696286,1,0
234,0,0,snake,absent,left,original,diff,1,0.643929098,1,0
235,-40,40,snake,absent,right,mirror,same,1,0.658082399,1,0
236,120,120,snake,absent,left,original,diff,1,0.97868599,1,0
237,-160,160,human,present,left,original,diff,1,0.825826977,1,0
238,0,0,human,absent,right,original,diff,1,0.626904,1,0
239,-120,120,snake,absent,right,original,same,1,0.67531463,1,0
240,-160,160,human,absent,right,original,diff,1,0.88792194,1,0
241,-160,160,human,present,right,mirror,diff,1,1.425959645,1,0
242,120,120,human,present,right,original,same,0,0.696475113,1,0
243,0,0,human,absent,right,mirror,diff,1,0.843453054,1,0
244,-80,80,snake,absent,right,mirror,same,1,0.811874974,1,0
245,-40,40,snake,absent,left,original,same,1,0.711118534,1,0
246,-80,80,snake,present,left,original,diff,1,0.75305477,1,0
247,80,80,human,present,left,original,diff,1,0.737823132,1,0
248,0,0,snake,absent,right,original,same,1,0.617923577,1,0
249,40,40,snake,absent,right,original,same,1,0.892277952,1,0
250,-120,120,snake,present,left,mirror,diff,1,0.849541625,1,0
251,160,160,human,absent,left,original,same,1,1.259954555,1,0
252,40,40,snake,present,right,original,diff,1,0.793216509,1,0
253,120,120,snake,absent,left,mirror,same,1,0.939412593,1,0
254,80,80,snake,present,right,mirror,diff,1,0.835798215,1,0
255,-40,40,snake,present,left,mirror,same,1,0.82340227,1,0
256,80,80,human,present,right,mirror,same,1,1.015458464,1,0
257,-80,80,human,absent,right,original,diff,1,0.806493868,1,0
258,80,80,human,present,left,mirror,same,1,0.748725743,1,0
259,0,0,human,present,left,mirror,diff,1,0.78513391,1,0
260,0,0,human,present,left,original,diff,1,0.71332152,1,0
261,-40,40,snake,present,left,original,same,1,0.693327625,1,0
262,-120,120,human,absent,left,mirror,diff,1,1.057212728,1,0
263,-160,160,snake,present,right,original,same,1,1.155266946,1,0
264,0,0,snake,present,left,original,diff,1,0.628563989,1,0
265,120,120,snake,absent,left,mirror,diff,1,1.100036577,1,0
266,40,40,human,absent,right,original,same,1,0.647939765,1,0
267,160,160,human,absent,right,original,same,1,0.787575756,1,0
268,40,40,human,present,right,original,same,1,0.551740636,1,0
269,80,80,snake,present,left,original,diff,1,0.600168406,1,0
270,120,120,human,absent,left,mirror,diff,0,0.77703964,1,0
271,40,40,snake,present,left,mirror,same,1,1.18435723,1,0
272,-120,120,human,present,left,mirror,diff,1,0.770788061,1,0
273,80,80,snake,absent,left,mirror,diff,1,0.859085467,1,0
274,-160,160,human,absent,right,mirror,same,0,0.839814353,1,0
275,120,120,human,present,right,mirror,diff,1,0.868868535,1,0
276,160,160,human,absent,left,mirror,diff,1,0.835641771,1,0
277,40,40,human,absent,right,mirror,same,1,0.769004448,1,0
278,120,120,snake,absent,right,original,same,1,0.729539597,1,0
279,80,80,snake,present,left,mirror,same,1,0.68505576,1,0
280,80,80,human,absent,right,original,diff,1,0.713538865,1,0
281,120,120,snake,absent,right,mirror,same,1,1.3759182,1,0
282,-120,120,human,absent,right,mirror,same,1,0.852421443,1,0
283,120,120,snake,absent,left,original,same,0,0.86716989,1,0
284,-80,80,human,absent,left,original,same,1,0.809960079,1,0
285,-160,160,human,present,right,original,same,1,0.982921296,1,0
286,-80,80,human,absent,right,mirror,diff,1,0.826309074,1,0
287,-120,120,human,absent,right,original,same,1,0.676997229,1,0
288,-80,80,snake,present,right,mirror,diff,1,0.803174619,1,0
289,120,120,human,present,right,original,diff,0,0.52454519,1,0
290,160,160,snake,absent,left,mirror,same,1,1.170347245,1,0
291,-40,40,human,absent,right,mirror,diff,1,0.712824107,1,0
292,160,160,snake,present,right,mirror,same,1,1.245927065,1,0
293,40,40,snake,absent,left,original,diff,1,0.912745192,1,0
294,40,40,snake,absent,right,mirror,same,1,0.740048728,1,0
295,0,0,snake,absent,right,original,same,1,0.631963101,1,0
296,-120,120,snake,absent,left,original,same,1,0.732029945,1,0
297,-80,80,human,absent,right,mirror,diff,1,0.758740742,1,0
298,-120,120,snake,present,right,mirror,same,1,1.339253304,1,0
299,80,80,snake,present,right,mirror,same,1,0.636850806,1,0
300,-120,120,snake,absent,left,original,diff,1,0.898420494,1,0
301,80,80,human,present,left,original,same,1,0.735243804,1,0
302,160,160,snake,present,left,mirror,same,1,0.848566126,1,0
303,-160,160,human,present,right,original,diff,1,0.987577434,1,0
304,0,0,human,present,right,original,diff,1,0.652334068,1,0
305,0,0,snake,present,left,original,diff,1,0.685806985,1,0
306,-160,160,human,present,left,original,diff,1,1.624452672,1,0
307,160,160,snake,present,right,original,same,1,0.875143453,1,0
308,-160,160,human,present,left,mirror,same,1,0.74993208,1,0
309,-120,120,snake,present,left,mirror,same,1,0.613701035,1,0
310,-160,160,human,absent,left,mirror,diff,1,0.865654676,1,0
311,160,160,snake,present,left,original,same,0,0.758334497,1,0
312,160,160,human,absent,left,mirror,same,1,0.806955179,1,0
313,0,0,snake,absent,right,mirror,diff,1,0.640595262,1,0
314,-40,40,human,present,right,original,diff,1,0.750708467,1,0
315,-160,160,human,present,right,mirror,diff,1,1.041994583,1,0
316,160,160,human,present,left,mirror,same,1,0.73001586,1,0
317,-120,120,human,present,left,mirror,same,1,0.669016737,1,0
318,40,40,human,present,left,original,same,1,0.663388748,1,0
319,0,0,human,present,left,mirror,same,1,0.664776691,1,0
320,160,160,human,present,right,original,same,1,0.826992835,1,0
321,160,160,snake,absent,left,original,diff,1,1.271583229,1,0
322,160,160,human,absent,right,mirror,diff,1,2.297917684,1,0
323,-120,120,human,absent,left,original,diff,1,0.738818323,1,0
324,40,40,human,absent,left,mirror,same,1,0.690251613,1,0
325,-40,40,human,present,left,original,diff,1,0.649307651,1,0
326,120,120,snake,present,right,original,diff,1,0.741501218,1,0
327,-120,120,snake,absent,right,mirror,diff,1,0.989550676,1,0
328,-160,160,human,absent,left,mirror,same,1,1.571435136,1,0
329,-80,80,human,absent,left,mirror,same,1,0.640694818,1,0
330,0,0,human,absent,left,original,same,1,0.635724697,1,0
331,-160,160,human,present,right,original,same,1,0.724274092,1,0
332,-80,80,snake,absent,right,original,same,1,0.66840664,1,0
333,-160,160,snake,absent,left,original,diff,1,0.911584804,1,0
334,-40,40,snake,absent,right,original,same,1,0.708444391,1,0
335,-80,80,snake,absent,left,original,same,1,0.627953528,1,0
336,-80,80,snake,present,left,original,diff,1,0.741772534,1,0
337,-120,120,snake,present,left,original,same,1,0.993788534,1,0
338,-40,40,human,absent,right,original,diff,1,0.649176369,1,0
339,160,160,human,present,left,original,diff,1,0.958231514,1,0
340,-80,80,snake,absent,left,mirror,diff,1,0.874250006,1,0
341,-120,120,snake,absent,left,mirror,diff,1,0.815783169,1,0
342,-160,160,snake,absent,left,original,same,0,0.907461089,1,0
343,-80,80,snake,present,right,mirror,diff,1,0.791607939,1,0
344,160,160,human,present,left,mirror,diff,1,1.161638138,1,0
345,-80,80,human,present,left,mirror,same,1,0.819454691,1,0
346,-40,40,snake,present,left,mirror,diff,1,0.641627285,1,0
347,120,120,human,absent,left,original,diff,1,1.091466775,1,0
348,80,80,human,absent,left,original,same,1,0.676582232,1,0
349,-80,80,human,present,right,original,same,1,0.632786531,1,0
350,160,160,snake,absent,right,original,same,1,0.998967977,1,0
351,-40,40,snake,absent,right,mirror,diff,1,0.67097357,1,0
352,-160,160,snake,absent,right,original,diff,1,1.441055989,1,0
353,160,160,snake,absent,left,original,same,0,0.933801014,1,0
354,80,80,snake,absent,left,original,same,1,0.667034743,1,0
355,-80,80,snake,absent,left,original,diff,1,0.602828326,1,0
356,80,80,snake,present,left,mirror,same,1,0.631989722,1,0
357,-120,120,human,present,left,original,diff,1,2.328075729,1,0
358,-80,80,human,present,right,original,diff,1,0.768926408,1,0
359,160,160,human,present,right,original,diff,1,2.059613732,1,0
360,-120,120,snake,present,right,original,same,1,0.593518239,1,0
361,40,40,human,present,left,original,diff,1,0.758729073,1,0
362,120,120,human,present,right,mirror,diff,1,0.845646194,1,0
363,80,80,snake,absent,right,mirror,same,0,0.788151209,1,0
364,-40,40,human,absent,left,mirror,same,1,0.785514263,1,0
365,120,120,snake,absent,left,original,same,1,1.229377136,1,0
366,0,0,snake,present,right,original,diff,1,0.685290974,1,0
367,80,80,snake,absent,left,original,diff,1,0.760342748,1,0
368,-40,40,human,absent,right,mirror,same,1,0.835726375,1,0
369,-40,40,human,present,left,mirror,same,1,0.720539117,1,0
370,0,0,human,absent,right,original,diff,1,0.660395152,1,0
371,-120,120,human,absent,right,mirror,same,1,0.733113752,1,0
372,-80,80,human,present,right,mirror,diff,1,0.69047224,1,0
373,-80,80,snake,absent,left,mirror,same,1,0.991093605,1,0
374,0,0,human,absent,left,original,diff,1,0.632852537,1,0
375,0,0,human,absent,right,mirror,same,1,0.699332686,1,0
376,160,160,human,absent,left,original,same,1,1.070313585,1,0
377,0,0,snake,present,right,mirror,same,1,0.624720706,1,0
378,120,120,snake,present,left,mirror,diff,1,0.861493035,1,0
379,160,160,snake,present,left,original,diff,1,1.262301586,1,0
380,80,80,human,present,right,original,diff,1,0.7295086,1,0
381,-40,40,snake,present,right,original,diff,1,0.746516193,1,0
382,-120,120,snake,present,right,mirror,diff,1,0.934051544,1,0
383,-120,120,human,present,left,mirror,diff,1,1.202496766,1,0
384,40,40,snake,absent,left,original,same,1,0.665406116,1,0
385,80,80,snake,absent,left,mirror,diff,1,0.877560137,1,0
386,0,0,human,present,right,mirror,diff,1,0.608966128,1,0
387,160,160,snake,absent,left,mirror,diff,1,0.819051363,1,0
388,-160,160,snake,present,left,mirror,diff,1,1.175444271,1,0
389,-160,160,snake,present,left,original,diff,1,1.87066564,1,0
390,-160,160,snake,absent,right,original,same,0,1.405605453,1,0
391,80,80,human,present,right,mirror,diff,1,1.001029106,1,0
392,-40,40,snake,present,right,original,same,1,1.09883097,1,0
393,120,120,human,absent,left,mirror,diff,1,0.892988698,1,0
394,-120,120,human,present,right,mirror,same,1,1.288174001,1,0
395,-80,80,snake,absent,right,original,diff,1,0.971468758,1,0
396,40,40,human,absent,right,mirror,same,1,0.707641018,1,0
397,160,160,snake,present,right,mirror,diff,1,1.683106586,1,0
398,40,40,human,present,left,mirror,diff,1,1.425104123,1,0
399,-160,160,snake,present,right,mirror,same,1,0.971130707,1,0
400,-40,40,snake,present,left,original,diff,1,0.841305498,1,0
401,40,40,snake,absent,right,original,diff,1,1.401167025,1,0
402,-80,80,snake,present,right,mirror,same,1,0.76364194,1,0
403,0,0,snake,absent,left,mirror,same,1,0.573079808,1,0
404,40,40,snake,absent,right,original,same,1,0.739230767,1,0
405,-40,40,human,absent,right,original,same,1,0.626179761,1,0
406,80,80,human,absent,right,original,same,1,0.740263884,1,0
407,-40,40,snake,absent,left,original,diff,1,0.656391778,1,0
408,-40,40,snake,absent,right,mirror,same,1,0.767528619,1,0
409,80,80,snake,present,right,original,same,1,0.731672931,1,0
410,0,0,snake,present,right,original,same,1,0.525807321,1,0
411,-40,40,human,absent,left,original,diff,1,0.592658342,1,0
412,160,160,snake,present,left,mirror,diff,1,1.367302813,1,0
413,80,80,human,absent,right,mirror,diff,1,0.863654083,1,0
414,160,160,human,present,right,mirror,same,1,1.343399994,1,0
415,80,80,human,present,left,original,diff,1,0.706654579,1,0
416,-40,40,human,present,left,original,same,1,1.078296265,1,0
417,120,120,human,present,left,mirror,diff,1,0.691434246,1,0
418,-120,120,human,absent,right,original,same,1,0.707006853,1,0
419,-80,80,human,absent,left,original,same,1,0.665787928,1,0
420,40,40,human,present,right,mirror,diff,1,0.622717196,1,0
421,0,0,snake,present,left,mirror,diff,1,1.112311086,1,0
422,-120,120,human,present,right,original,same,1,0.693883021,1,0
423,-40,40,snake,present,right,mirror,same,1,0.722375243,1,0
424,-80,80,human,absent,left,mirror,diff,1,0.674600237,1,0
425,-40,40,snake,absent,left,mirror,same,1,1.022003605,1,0
426,-160,160,snake,present,left,original,same,1,0.96927963,1,0
427,80,80,snake,absent,left,mirror,same,1,0.990945548,1,0
428,0,0,human,present,left,original,same,1,0.560964296,1,0
429,0,0,human,present,left,mirror,diff,1,0.584141417,1,0
430,-40,40,snake,present,right,mirror,diff,1,0.792688828,1,0
431,-160,160,snake,absent,right,mirror,diff,1,1.865236032,1,0
432,-160,160,human,absent,right,mirror,diff,1,1.063481448,1,0
433,-120,120,snake,absent,right,mirror,same,1,0.725893238,1,0
434,80,80,snake,present,left,original,same,1,0.713469213,1,0
435,-80,80,human,absent,right,mirror,same,1,0.550641149,1,0
436,40,40,snake,absent,left,mirror,same,1,0.686444798,1,0
437,-160,160,snake,absent,left,mirror,same,1,1.040019153,1,0
438,120,120,human,absent,right,original,same,1,0.893490488,1,0
439,-160,160,human,present,left,original,same,1,0.786646571,1,0
440,80,80,snake,absent,right,original,same,1,0.615761434,1,0
441,0,0,human,absent,right,original,same,1,0.537543574,1,0
442,-160,160,human,absent,right,original,same,1,0.722578001,1,0
443,-40,40,human,absent,left,original,same,1,0.542693113,1,0
444,-120,120,snake,absent,right,original,diff,1,1.781572519,1,0
445,80,80,human,absent,left,original,diff,1,0.806021252,1,0
446,120,120,human,present,right,mirror,same,1,0.852917033,1,0
447,120,120,snake,absent,left,mirror,same,1,0.756488525,1,0
448,160,160,human,absent,right,original,diff,1,1.054136716,1,0
449,-120,120,human,absent,left,mirror,diff,1,1.327373735,1,0
450,40,40,snake,present,left,original,same,1,0.635019421,1,0
451,80,80,human,absent,right,original,diff,1,0.825760606,1,0
452,160,160,snake,absent,right,original,diff,1,0.911385329,1,0
453,120,120,snake,absent,right,mirror,same,1,0.813065994,1,0
454,-120,120,snake,absent,right,original,same,1,1.079679468,1,0
455,-120,120,human,absent,right,original,diff,1,0.874031931,1,0
456,120,120,snake,absent,right,original,diff,1,0.905742387,1,0
457,-160,160,human,absent,left,original,diff,1,1.383034417,1,0
458,120,120,snake,present,right,mirror,diff,1,0.80587903,1,0
459,160,160,human,present,left,original,same,1,1.176148454,1,0
460,-120,120,snake,absent,left,mirror,same,1,1.171703462,1,0
461,40,40,human,absent,right,original,diff,1,0.746921709,1,0
462,-120,120,human,present,left,original,same,1,0.794391484,1,0
463,-40,40,human,present,left,mirror,diff,1,0.681651543,1,0
464,120,120,snake,present,left,original,same,1,0.86895715,1,0
465,-80,80,snake,present,left,mirror,diff,1,0.770957998,1,0
466,-160,160,snake,absent,left,mirror,diff,1,1.453333781,1,0
467,-80,80,human,absent,right,original,same,1,0.614828602,1,0
468,-120,120,snake,present,left,original,diff,1,1.094446513,1,0
469,-80,80,human,absent,right,original,diff,1,0.903560188,1,0
470,160,160,human,absent,left,mirror,diff,1,1.556432876,1,0
471,120,120,human,present,right,original,same,1,0.919965342,1,0
472,0,0,snake,absent,right,mirror,same,1,0.906522057,1,0
473,160,160,human,absent,right,mirror,same,1,1.257947033,1,0
474,40,40,human,present,right,mirror,same,1,0.694667431,1,0
475,120,120,human,present,left,original,diff,1,0.800294072,1,0
476,40,40,snake,present,right,original,same,1,0.616250825,1,0
477,120,120,human,present,left,original,same,1,0.755763192,1,0
478,120,120,human,present,left,mirror,same,0,0.715463971,1,0
479,120,120,snake,absent,left,mirror,diff,1,1.3896328,1,0
480,40,40,human,absent,left,mirror,diff,1,1.138842099,1,0
481,120,120,snake,absent,right,mirror,diff,1,1.033375186,1,0
482,-80,80,snake,absent,right,mirror,same,1,0.804667224,1,0
483,120,120,human,absent,left,original,same,1,1.344826958,1,0
484,120,120,snake,present,left,mirror,same,1,0.765459832,1,0
485,40,40,snake,present,right,mirror,same,1,0.569040332,1,0
486,-40,40,human,present,right,original,same,1,0.580298499,1,0
487,80,80,human,absent,left,mirror,diff,1,0.731936589,1,0
488,80,80,human,present,right,original,same,1,0.648565907,1,0
489,40,40,human,present,left,mirror,same,1,0.941045596,1,0
490,40,40,human,present,right,original,same,1,0.556098472,1,0
491,-120,120,human,absent,left,mirror,same,1,0.766863456,1,0
492,0,0,human,absent,left,mirror,diff,1,0.637757017,1,0
493,-120,120,human,present,right,mirror,diff,1,1.010717723,1,0
494,-40,40,human,present,right,mirror,same,1,0.73818671,1,0
495,80,80,snake,present,left,original,diff,1,0.759319113,1,0
496,-160,160,human,absent,right,mirror,same,1,0.729246401,1,0
497,0,0,human,present,right,mirror,same,1,0.520159639,1,0
498,0,0,snake,present,right,mirror,diff,1,0.596951995,1,0
499,0,0,snake,present,left,original,same,1,0.623227008,1,0
500,0,0,human,absent,right,mirror,diff,1,0.969292758,1,0
501,160,160,human,absent,right,original,same,1,0.822494235,1,0
502,0,0,snake,absent,left,mirror,diff,1,0.619908124,1,0
503,-80,80,human,present,left,mirror,diff,1,0.769261542,1,0
504,-120,120,snake,present,left,mirror,diff,1,0.973180895,1,0
505,80,80,human,absent,right,mirror,same,1,0.703167217,1,0
506,-40,40,snake,absent,right,original,diff,1,0.704333439,1,0
507,-80,80,human,present,right,mirror,same,1,1.050863417,1,0
508,120,120,human,absent,right,mirror,same,1,0.786264394,1,0
509,-40,40,snake,absent,left,original,same,1,0.551286254,1,0
510,-80,80,snake,absent,right,mirror,diff,1,0.829947411,1,0
511,-80,80,human,absent,left,original,diff,1,0.879384593,1,0
512,80,80,snake,present,right,original,diff,1,0.712117007,1,0
513,-160,160,snake,present,right,original,diff,1,1.706950693,1,0
514,120,120,human,absent,left,mirror,same,1,0.886143797,1,0
515,-160,160,human,absent,left,original,same,1,0.789329466,1,0
516,80,80,snake,absent,right,original,diff,1,0.725740805,1,0
517,-40,40,snake,present,left,mirror,same,1,0.789599688,1,0
518,120,120,snake,present,left,original,diff,1,0.897242602,1,0
519,0,0,human,present,right,original,same,1,0.644938146,1,0
520,0,0,snake,absent,left,original,diff,1,0.670205569,1,0
521,0,0,snake,present,left,mirror,same,1,0.747581766,1,0
522,80,80,snake,absent,right,mirror,diff,1,0.806075224,1,0
523,-160,160,human,present,left,mirror,diff,1,0.983424179,1,0
524,40,40,snake,present,right,mirror,diff,1,0.734124989,1,0
525,-80,80,human,present,left,original,diff,1,0.753812559,1,0
526,0,0,snake,absent,right,original,diff,1,0.93203454,1,0
527,40,40,human,absent,right,mirror,diff,1,0.95942691,1,0
528,120,120,human,absent,right,mirror,diff,1,0.916409056,1,0
529,40,40,snake,absent,right,mirror,diff,1,1.002789379,1,0
530,40,40,human,present,right,original,diff,1,0.674351895,1,0
531,160,160,snake,absent,right,mirror,same,1,1.211322204,1,0
532,40,40,human,absent,left,original,same,1,0.628153003,1,0
533,-160,160,snake,present,right,mirror,diff,1,1.115865184,1,0
534,120,120,snake,present,right,original,same,1,0.718210319,1,0
535,-40,40,snake,absent,left,mirror,diff,1,1.006154941,1,0
536,40,40,human,absent,right,original,same,1,0.841870011,1,0
537,-120,120,human,absent,left,original,same,1,1.087946956,1,0
538,120,120,snake,absent,right,original,same,1,0.692961494,1,0
539,-40,40,human,absent,left,mirror,diff,1,0.635517928,1,0
540,120,120,snake,present,right,mirror,same,1,0.98656328,1,0
541,-160,160,snake,absent,right,mirror,same,1,1.32440676,1,0
542,80,80,snake,present,left,mirror,diff,1,0.619439156,1,0
543,-80,80,human,present,left,original,same,1,0.704233519,1,0
544,-120,120,human,absent,right,mirror,diff,1,0.885630703,1,0
545,-160,160,human,present,right,mirror,same,1,1.481552863,1,0
546,160,160,snake,absent,right,mirror,diff,1,1.008255454,1,0
547,-160,160,snake,present,right,original,same,1,0.946454053,1,0
548,-40,40,human,present,right,mirror,diff,1,0.721351243,1,0
549,40,40,snake,present,right,original,diff,1,1.262041575,1,0
550,80,80,human,present,left,mirror,same,1,0.847157761,1,0
551,80,80,human,present,left,mirror,diff,1,0.718247516,1,0
552,120,120,human,absent,right,original,diff,1,0.816628844,1,0
553,40,40,snake,present,left,mirror,same,1,0.956105109,1,0
554,-80,80,snake,present,right,original,diff,1,0.756975728,1,0
555,40,40,snake,present,left,mirror,diff,1,0.758562418,1,0
556,80,80,human,absent,left,mirror,same,1,0.753991978,1,0
557,80,80,snake,present,right,mirror,diff,1,0.73680606,1,0
558,160,160,snake,present,right,original,diff,1,0.871921572,1,0
559,40,40,human,absent,left,original,diff,1,0.757271842,1,0
560,40,40,snake,present,left,original,diff,1,0.903463185,1,0
561,-80,80,snake,present,right,original,same,1,0.723085625,1,0
562,0,0,snake,absent,left,original,same,1,0.642552094,1,0
563,0,0,human,present,left,original,diff,1,0.69157428,1,0
564,-160,160,snake,present,left,mirror,same,1,0.980898823,1,0
565,-160,160,human,absent,right,original,diff,1,0.840227162,1,0
566,80,80,human,present,right,mirror,same,1,0.757003078,1,0
567,160,160,human,present,right,mirror,diff,1,1.302137309,1,0
568,-120,120,human,present,right,original,diff,1,1.329837462,1,0
569,160,160,human,absent,left,original,diff,1,1.122692945,1,0
570,-80,80,snake,present,left,mirror,same,1,0.743250187,1,0
571,-80,80,snake,present,left,original,same,1,0.691042952,1,0
572,0,0,human,absent,left,mirror,same,1,0.688268524,1,0
573,40,40,snake,absent,left,mirror,diff,1,0.723399972,1,0
574,-40,40,snake,present,left,original,same,1,0.691795271,1,0
575,-120,120,snake,present,right,original,diff,1,0.816714542,1,0
576,120,120,snake,absent,left,original,diff,1,0.959797052,1,0
1,40,40,snake,present,right,original,same,1,1.531045111,2,0
2,-80,80,snake,absent,right,mirror,diff,1,1.074402657,2,0
3,-120,120,human,present,right,mirror,diff,1,0.910490058,2,0
4,40,40,snake,present,left,mirror,same,1,1.732561638,2,0
5,-120,120,human,absent,left,original,same,1,1.95965556,2,0
6,-80,80,snake,present,left,mirror,diff,1,1.391416778,2,0
7,-80,80,human,absent,left,original,same,1,0.958988574,2,0
8,0,0,snake,absent,left,mirror,diff,1,1.437488034,2,0
9,-40,40,human,present,right,mirror,same,1,0.750333219,2,0
10,120,120,snake,absent,right,mirror,same,1,3.588217726,2,0
11,120,120,snake,absent,left,mirror,same,1,1.755347101,2,0
12,-120,120,snake,absent,right,mirror,diff,1,1.061129675,2,0
13,-120,120,human,present,left,original,diff,1,1.558097971,2,0
14,-40,40,snake,present,left,original,diff,0,0.966980005,2,0
15,-120,120,human,present,right,mirror,same,1,2.156421134,2,0
16,-80,80,snake,absent,right,original,diff,1,2.105552247,2,0
17,-160,160,snake,absent,left,original,same,1,1.754941585,2,0
18,80,80,human,present,left,original,same,1,2.615028078,2,0
19,160,160,human,present,right,mirror,diff,1,3.039027973,2,0
20,40,40,human,present,right,original,same,1,1.162670161,2,0
21,80,80,human,present,right,original,diff,1,2.086410227,2,0
22,40,40,snake,present,right,mirror,same,1,0.989826004,2,0
23,80,80,snake,absent,left,mirror,same,1,3.304801605,2,0
24,-120,120,snake,present,left,original,same,1,1.436866268,2,0
25,-40,40,human,present,left,mirror,diff,1,1.54795096,2,0
26,-40,40,human,absent,left,mirror,same,1,1.773207662,2,0
27,120,120,human,absent,right,original,same,1,2.865773195,2,0
28,0,0,snake,present,right,original,same,1,0.698197461,2,0
29,160,160,human,absent,right,mirror,diff,1,2.07244546,2,0
30,-40,40,snake,present,right,mirror,diff,1,0.997006769,2,0
31,40,40,snake,present,right,original,diff,1,1.089404552,2,0
32,40,40,human,present,left,mirror,same,1,1.149616711,2,0
33,40,40,human,absent,left,original,diff,1,1.408146126,2,0
34,120,120,human,present,left,mirror,same,1,1.527977487,2,0
35,-40,40,human,present,left,original,same,1,1.245238928,2,0
36,-160,160,snake,present,right,original,same,1,3.298428955,2,0
37,120,120,snake,absent,left,original,same,1,3.278050695,2,0
38,80,80,snake,absent,right,mirror,same,1,1.056884888,2,0
39,-40,40,snake,present,right,mirror,same,1,1.173448054,2,0
40,0,0,human,present,left,mirror,diff,1,1.342618137,2,0
41,-40,40,human,present,right,mirror,diff,1,0.906626718,2,0
42,-120,120,snake,present,right,mirror,diff,1,1.06999705,2,0
43,80,80,snake,present,right,original,same,1,0.88968659,2,0
44,160,160,human,present,right,original,same,1,1.008364856,2,0
45,80,80,human,absent,right,original,diff,1,2.109231427,2,0
46,-40,40,human,absent,right,original,diff,1,1.055082312,2,0
47,-160,160,snake,present,left,original,same,1,1.023793053,2,0
48,120,120,human,absent,left,mirror,same,1,1.12013805,2,0
49,0,0,snake,present,right,mirror,same,1,1.104671928,2,0
50,160,160,human,absent,left,mirror,diff,1,1.49102997,2,0
51,-80,80,human,present,right,original,diff,1,1.919759302,2,0
52,-40,40,human,absent,right,original,same,1,0.707373348,2,0
53,80,80,human,present,right,original,same,1,0.759967136,2,0
54,-120,120,snake,absent,right,original,diff,1,1.005024821,2,0
55,80,80,snake,absent,right,original,diff,1,0.953135946,2,0
56,0,0,snake,absent,right,original,same,1,0.675283268,2,0
57,160,160,snake,present,left,original,diff,1,1.725222605,2,0
58,-40,40,snake,absent,right,original,diff,1,0.700334806,2,0
59,160,160,snake,present,left,original,same,1,1.082857952,2,0
60,120,120,human,absent,left,mirror,diff,1,2.225496656,2,0
61,0,0,human,absent,left,mirror,same,1,0.712071423,2,0
62,-120,120,human,absent,left,mirror,diff,1,1.679524409,2,0
63,-80,80,snake,present,right,original,diff,1,1.829943764,2,0
64,-40,40,human,absent,left,original,same,1,0.854769569,2,0
65,40,40,snake,absent,right,original,same,1,0.749847111,2,0
66,160,160,human,present,left,original,diff,1,0.97906525,2,0
67,80,80,human,absent,left,original,diff,1,0.843497909,2,0
68,-80,80,human,absent,left,mirror,same,1,1.001029106,2,0
69,80,80,snake,absent,left,original,diff,1,0.869317082,2,0
70,160,160,snake,present,right,original,same,1,4.114067348,2,1
71,-120,120,snake,present,left,mirror,same,1,1.517644858,2,0
72,-80,80,human,present,right,mirror,diff,1,1.428774186,2,0
73,40,40,snake,present,left,original,diff,1,1.09289629,2,0
74,160,160,human,present,right,mirror,same,1,2.578397097,2,0
75,40,40,snake,absent,left,original,same,1,0.769515719,2,0
76,0,0,snake,absent,right,mirror,diff,1,1.009127386,2,0
77,0,0,snake,present,right,original,diff,1,1.558876182,2,0
78,-40,40,snake,absent,left,original,same,1,0.64597418,2,0
79,40,40,snake,absent,left,mirror,same,1,0.716640404,2,0
80,-40,40,snake,absent,right,mirror,diff,1,0.793873649,2,0
81,120,120,snake,absent,right,original,same,1,1.821953791,2,0
82,40,40,snake,absent,right,mirror,diff,1,1.325056971,2,0
83,120,120,snake,absent,left,mirror,diff,1,1.300229343,2,0
84,40,40,snake,present,right,mirror,diff,1,1.177213662,2,0
85,-40,40,human,present,right,original,same,1,0.63739125,2,0
86,-160,160,snake,present,left,mirror,same,1,1.419303279,2,0
87,160,160,human,absent,left,original,diff,1,1.339681429,2,0
88,-120,120,human,present,right,original,same,1,1.381460491,2,0
89,160,160,human,present,right,original,diff,1,3.080788072,2,0
90,160,160,human,absent,right,mirror,same,0,4.26812504,2,1
91,-160,160,human,absent,right,mirror,diff,1,1.535010194,2,0
92,-80,80,human,present,right,mirror,same,1,1.346166035,2,0
93,0,0,human,present,right,original,diff,1,1.006507944,2,0
94,-40,40,human,absent,right,mirror,same,1,2.001354393,2,0
95,-40,40,snake,absent,right,mirror,same,1,1.289615551,2,0
96,0,0,human,absent,right,mirror,same,1,0.806631714,2,0
97,-160,160,snake,present,left,original,diff,1,1.08430242,2,0
98,160,160,snake,absent,right,original,diff,1,2.004162006,2,0
99,-120,120,human,absent,right,mirror,same,1,2.062817744,2,0
100,0,0,human,present,right,mirror,same,1,0.801271759,2,0
101,0,0,snake,absent,left,original,diff,1,0.849221078,2,0
102,-40,40,snake,absent,left,mirror,diff,1,1.290614025,2,0
103,0,0,snake,present,left,original,diff,1,1.665772247,2,0
104,0,0,human,present,left,original,same,1,0.951970088,2,0
105,-40,40,snake,present,left,original,same,1,1.439158234,2,0
106,-80,80,human,present,left,mirror,diff,1,1.800420248,2,0
107,-120,120,snake,absent,left,mirror,same,1,2.809243133,2,0
108,40,40,snake,present,left,original,same,1,1.014608048,2,0
109,-120,120,human,absent,left,original,diff,1,1.53964044,2,0
110,80,80,snake,present,left,mirror,same,1,0.911332086,2,0
111,160,160,human,present,left,mirror,diff,1,1.395392437,2,0
112,40,40,snake,absent,left,mirror,diff,1,0.886199227,2,0
113,-80,80,snake,present,left,mirror,same,1,0.909920075,2,0
114,40,40,human,present,left,mirror,diff,1,0.882264047,2,0
115,160,160,snake,absent,left,mirror,same,1,0.916724133,2,0
116,40,40,human,present,right,mirror,diff,1,1.148625531,2,0
117,40,40,human,absent,left,original,same,1,0.677237548,2,0
118,-160,160,snake,absent,left,original,diff,1,0.817544537,2,0
119,-160,160,snake,absent,left,mirror,diff,1,1.08460838,2,0
120,-120,120,snake,present,right,mirror,same,1,1.789582548,2,0
121,-160,160,human,absent,right,mirror,same,1,0.972918331,2,0
122,-160,160,human,present,left,original,diff,1,1.094458547,2,0
123,-80,80,human,present,left,original,diff,1,1.042651723,2,0
124,0,0,human,present,right,mirror,diff,1,0.758123717,2,0
125,160,160,snake,present,right,original,diff,1,1.124469265,2,0
126,-80,80,human,absent,right,mirror,same,1,0.919656464,2,0
127,-160,160,human,absent,right,original,same,1,1.493186278,2,0
128,80,80,human,absent,right,mirror,diff,1,1.459165258,2,0
129,80,80,human,absent,right,original,same,1,0.792972908,2,0
130,40,40,human,absent,left,mirror,diff,1,1.770208232,2,0
131,120,120,snake,present,left,original,same,1,0.941484662,2,0
132,-80,80,human,absent,left,original,diff,1,0.835033862,2,0
133,-120,120,snake,absent,left,original,diff,1,1.680569195,2,0
134,40,40,human,absent,right,mirror,diff,1,0.931204911,2,0
135,-120,120,human,present,left,mirror,diff,1,0.888035353,2,0
136,120,120,human,present,right,mirror,same,1,2.265042464,2,0
137,-80,80,snake,absent,right,mirror,same,1,0.945178064,2,0
138,-160,160,snake,absent,right,original,same,1,1.711199127,2,0
139,-80,80,snake,present,left,original,same,1,0.876445334,2,0
140,80,80,human,absent,left,original,same,1,0.842104495,2,0
141,-160,160,human,present,right,mirror,same,1,2.235984271,2,0
142,-120,120,human,present,left,mirror,same,1,1.58900323,2,0
143,120,120,snake,present,left,mirror,same,1,2.336668141,2,0
144,-120,120,snake,absent,left,mirror,diff,1,1.026141179,2,0
145,40,40,human,present,right,mirror,same,1,1.557032763,2,0
146,120,120,human,present,left,original,diff,1,1.037835129,2,0
147,-160,160,snake,present,left,mirror,diff,1,1.653143276,2,0
148,0,0,human,absent,right,mirror,diff,1,1.088470261,2,0
149,-40,40,human,present,left,original,diff,1,0.974447767,2,0
150,-80,80,snake,absent,left,mirror,same,1,0.857630789,2,0
151,80,80,human,present,left,mirror,diff,1,1.475807449,2,0
152,-40,40,snake,absent,left,original,diff,1,1.287475289,2,0
153,-160,160,snake,present,right,original,diff,1,2.594289521,2,0
154,160,160,snake,absent,right,original,same,1,2.13924251,2,0
155,-40,40,snake,absent,right,original,same,1,1.756466645,2,0
156,-160,160,human,present,left,original,same,1,1.085403366,2,0
157,-80,80,snake,absent,left,original,diff,1,1.059765435,2,0
158,0,0,human,absent,right,original,diff,1,1.170636065,2,0
159,-80,80,human,absent,right,original,diff,1,1.443373483,2,0
160,-120,120,human,present,left,original,same,1,1.077491798,2,0
161,0,0,snake,absent,right,original,diff,1,0.717660393,2,0
162,-40,40,human,absent,left,original,diff,1,1.070372662,2,0
163,80,80,human,absent,left,mirror,diff,1,1.135847409,2,0
164,120,120,snake,present,left,original,diff,1,1.024070933,2,0
165,-120,120,human,absent,right,original,diff,1,1.839888381,2,0
166,120,120,human,present,left,mirror,diff,1,1.049316112,2,0
167,0,0,human,present,left,original,diff,1,1.609317308,2,0
168,-40,40,human,present,right,original,diff,1,1.724879084,2,0
169,-160,160,human,absent,left,mirror,same,1,2.457922454,2,0
170,-80,80,snake,present,left,original,diff,1,0.92553316,2,0
171,120,120,snake,present,right,mirror,same,1,1.405909954,2,0
172,160,160,snake,absent,right,mirror,diff,1,3.945266315,2,1
173,-80,80,human,present,right,original,same,1,2.028465965,2,0
174,-80,80,snake,absent,left,mirror,diff,1,1.107828897,2,0
175,160,160,snake,absent,left,original,diff,1,1.314841402,2,0
176,40,40,snake,absent,right,original,diff,1,1.694754588,2,0
177,80,80,human,absent,right,mirror,same,1,1.458651799,2,0
178,-160,160,human,present,left,mirror,same,1,1.967402661,2,0
179,-160,160,human,present,right,mirror,diff,1,2.049197228,2,0
180,40,40,human,absent,right,mirror,same,1,0.813607533,2,0
181,80,80,human,absent,left,mirror,same,1,0.88673019,2,0
182,-40,40,snake,absent,left,mirror,same,1,0.990284762,2,0
183,0,0,human,absent,left,original,diff,1,1.356111017,2,0
184,-40,40,human,absent,right,mirror,diff,1,0.753593756,2,0
185,-40,40,human,absent,left,mirror,diff,1,0.803171702,2,0
186,160,160,snake,present,right,mirror,same,1,1.716327515,2,0
187,160,160,snake,absent,left,original,same,1,2.292600031,2,0
188,160,160,human,absent,right,original,same,1,2.343921111,2,0
189,-120,120,human,present,right,original,diff,1,1.488212146,2,0
190,40,40,snake,present,left,mirror,diff,1,0.94072359,2,0
191,0,0,snake,absent,right,mirror,same,1,0.772794853,2,0
192,-120,120,snake,present,left,mirror,diff,1,2.72613064,2,0
193,160,160,snake,present,right,mirror,diff,1,3.5951042,2,0
194,120,120,human,present,left,original,same,1,1.27808315,2,0
195,0,0,human,absent,left,mirror,diff,1,0.710276506,2,0
196,-160,160,snake,present,right,mirror,same,1,2.980857615,2,0
197,-40,40,snake,present,left,mirror,diff,1,0.868803623,2,0
198,120,120,snake,absent,right,original,diff,1,1.190049402,2,0
199,160,160,human,absent,right,original,diff,1,1.266284174,2,0
200,120,120,snake,present,right,original,same,1,1.516508903,2,0
201,-160,160,human,absent,left,original,same,1,1.461827731,2,0
202,0,0,snake,present,left,original,same,1,0.657668131,2,0
203,-40,40,snake,present,right,original,diff,1,0.636587512,2,0
204,80,80,snake,absent,right,mirror,diff,1,1.875681345,2,0
205,-40,40,snake,present,left,mirror,same,1,0.737116396,2,0
206,80,80,human,present,left,mirror,same,1,0.822865472,2,0
207,80,80,human,present,right,mirror,same,1,0.790973045,2,0
208,40,40,snake,absent,right,mirror,same,1,0.689444593,2,0
209,0,0,snake,present,left,mirror,same,1,0.688124843,2,0
210,-80,80,snake,absent,left,original,same,1,1.148354215,2,0
211,-120,120,human,absent,right,original,same,1,1.262101016,2,0
212,-80,80,human,absent,right,original,same,1,1.142932995,2,0
213,120,120,snake,present,right,original,diff,1,1.055234745,2,0
214,80,80,human,present,right,mirror,diff,1,0.959441862,2,0
215,-120,120,snake,absent,right,original,same,1,1.994880364,2,0
216,120,120,human,present,right,original,same,1,1.296794128,2,0
217,40,40,human,absent,left,mirror,same,1,1.713667595,2,0
218,-120,120,snake,present,right,original,diff,1,1.336906637,2,0
219,80,80,snake,present,right,original,diff,1,1.074233814,2,0
220,80,80,snake,present,left,original,diff,1,1.023030887,2,0
221,160,160,snake,present,left,mirror,diff,1,1.357837011,2,0
222,40,40,snake,absent,left,original,diff,1,1.13352007,2,0
223,80,80,snake,present,left,original,same,1,0.718688769,2,0
224,-160,160,snake,absent,right,mirror,same,1,2.421446459,2,0
225,80,80,snake,present,left,mirror,diff,1,0.959396277,2,0
226,-160,160,human,present,right,original,same,1,1.596510741,2,0
227,80,80,snake,absent,left,original,same,1,0.822742577,2,0
228,40,40,human,present,left,original,diff,1,0.716580233,2,0
229,40,40,human,present,left,original,same,1,0.643588858,2,0
230,120,120,human,absent,right,mirror,diff,1,1.975049112,2,0
231,120,120,snake,present,right,mirror,diff,1,2.085869417,2,0
232,120,120,human,absent,right,mirror,same,1,2.36830858,2,0
233,160,160,snake,absent,right,mirror,same,1,1.609712613,2,0
234,-160,160,snake,present,right,mirror,diff,0,1.106338116,2,0
235,-160,160,human,present,right,original,diff,1,2.294319826,2,0
236,-160,160,human,absent,left,original,diff,1,3.167553489,2,0
237,-120,120,human,absent,left,mirror,same,1,1.536588132,2,0
238,40,40,human,present,right,original,diff,1,2.19849084,2,0
239,160,160,human,present,left,original,same,1,1.609561274,2,0
240,120,120,snake,absent,left,original,diff,1,0.922995769,2,0
241,160,160,snake,present,left,mirror,same,1,2.652966774,2,0
242,-120,120,snake,present,right,original,same,1,1.491943474,2,0
243,0,0,snake,absent,left,mirror,same,1,0.702570612,2,0
244,0,0,snake,absent,left,original,same,1,0.62698751,2,0
245,120,120,snake,present,left,mirror,diff,1,1.033724906,2,0
246,80,80,snake,absent,right,original,same,1,0.773539514,2,0
247,-160,160,snake,absent,left,mirror,same,1,1.279343094,2,0
248,-40,40,human,present,left,mirror,same,1,0.90621865,2,0
249,-80,80,snake,present,right,mirror,diff,1,1.071256628,2,0
250,160,160,human,absent,left,original,same,1,1.211218637,2,0
251,-80,80,human,present,left,mirror,same,1,0.963955777,2,0
252,80,80,snake,absent,left,mirror,diff,1,0.815608491,2,0
253,-120,120,snake,absent,right,mirror,same,1,2.48565871,2,0
254,-160,160,human,present,left,mirror,diff,1,0.930546312,2,0
255,0,0,human,present,right,original,same,1,0.609003689,2,0
256,-160,160,snake,absent,right,mirror,diff,1,2.240991953,2,0
257,120,120,human,present,right,mirror,diff,1,3.433708569,2,0
258,160,160,human,absent,left,mirror,same,1,2.217531846,2,0
259,-120,120,snake,absent,left,original,same,1,1.144184186,2,0
260,-80,80,human,absent,right,mirror,diff,1,0.923664943,2,0
261,120,120,human,present,right,original,diff,1,0.973165944,2,0
262,120,120,snake,absent,right,mirror,diff,1,1.669449604,2,0
263,40,40,human,absent,right,original,same,1,0.761801438,2,0
264,-40,40,snake,present,right,original,same,1,0.550566756,2,0
265,160,160,snake,absent,left,mirror,diff,1,2.327397439,2,0
266,120,120,human,absent,left,original,diff,1,0.871753093,2,0
267,-80,80,snake,present,right,original,same,1,0.652662638,2,0
268,-120,120,human,absent,right,mirror,diff,1,1.142441052,2,0
269,-160,160,snake,absent,right,original,diff,1,2.405661248,2,0
270,120,120,human,absent,right,original,diff,1,1.279212906,2,0
271,80,80,snake,present,right,mirror,same,1,1.022706694,2,0
272,-80,80,human,absent,left,mirror,diff,1,0.892398658,2,0
273,-160,160,human,absent,right,original,diff,1,1.653796039,2,0
274,-120,120,snake,present,left,original,diff,1,0.988398311,2,0
275,120,120,human,absent,left,original,same,1,1.327221302,2,0
276,0,0,human,absent,left,original,same,1,0.708589896,2,0
277,0,0,snake,present,left,mirror,diff,1,0.606079017,2,0
278,-80,80,snake,present,right,mirror,same,1,1.44155632,2,0
279,80,80,snake,present,right,mirror,diff,1,0.959447332,2,0
280,-80,80,snake,absent,right,original,same,1,1.785224713,2,0
281,0,0,human,absent,right,original,same,1,0.609231974,2,0
282,-80,80,human,present,left,original,same,1,0.890999775,2,0
283,40,40,human,absent,right,original,diff,1,1.149247298,2,0
284,0,0,human,present,left,mirror,same,0,0.886773951,2,0
285,0,0,snake,present,right,mirror,diff,0,0.858695997,2,0
286,160,160,human,present,left,mirror,same,1,1.958320129,2,0
287,80,80,human,present,left,original,diff,1,0.874397333,2,0
288,-160,160,human,absent,left,mirror,diff,1,1.040996475,2,0
289,40,40,human,present,left,mirror,diff,1,0.867146551,2,0
290,-160,160,snake,present,right,original,diff,1,1.463891048,2,0
291,120,120,human,present,left,mirror,same,1,1.207696995,2,0
292,120,120,snake,present,left,mirror,same,1,1.056285731,2,0
293,160,160,snake,absent,right,mirror,same,1,3.481184544,2,0
294,40,40,human,present,left,original,same,1,0.754844947,2,0
295,120,120,human,present,right,original,same,1,1.746464045,2,0
296,-80,80,snake,absent,left,mirror,same,1,2.663825261,2,0
297,-160,160,human,absent,right,mirror,diff,1,1.793126071,2,0
298,40,40,human,absent,right,mirror,diff,1,1.108044419,2,0
299,120,120,human,absent,left,mirror,diff,1,1.337937201,2,0
300,80,80,snake,absent,right,original,same,1,0.849482913,2,0
301,0,0,snake,absent,right,original,same,1,0.621757014,2,0
302,120,120,human,present,left,original,same,1,1.139734453,2,0
303,160,160,snake,present,right,mirror,same,0,1.30713952,2,0
304,160,160,human,absent,right,mirror,same,1,2.839222489,2,0
305,-160,160,human,present,right,mirror,diff,1,1.60323056,2,0
306,120,120,snake,absent,left,mirror,same,1,1.153936621,2,0
307,0,0,human,absent,right,mirror,same,1,0.617704044,2,0
308,-80,80,snake,absent,right,mirror,diff,1,1.327106065,2,0
309,80,80,snake,absent,left,original,diff,1,1.254070929,2,0
310,120,120,snake,absent,right,original,diff,1,1.811163498,2,0
311,-120,120,human,present,left,original,same,1,1.066087032,2,0
312,-160,160,snake,present,left,mirror,same,1,1.732343928,2,0
313,40,40,human,present,right,original,diff,1,0.702729974,2,0
314,40,40,human,present,left,mirror,same,1,0.905798547,2,0
315,160,160,human,present,left,original,same,1,1.359161866,2,0
316,80,80,snake,present,left,mirror,same,1,0.977456315,2,0
317,-80,80,human,present,left,original,same,1,0.659880964,2,0
318,-80,80,snake,absent,right,original,same,1,0.700899319,2,0
319,80,80,snake,present,right,mirror,diff,1,1.195800651,2,0
320,40,40,human,absent,left,original,diff,1,0.99104401,2,0
321,0,0,human,absent,right,original,diff,1,1.339840427,2,0
322,-80,80,snake,present,left,mirror,diff,1,1.073073062,2,0
323,80,80,human,absent,right,original,diff,1,0.825490384,2,0
324,-40,40,human,present,right,mirror,same,1,0.745365287,2,0
325,-40,40,snake,present,left,mirror,diff,1,0.922463712,2,0
326,-40,40,snake,absent,left,mirror,same,1,0.680404728,2,0
327,40,40,human,absent,left,original,same,1,0.695721335,2,0
328,160,160,snake,absent,right,original,diff,1,1.158161351,2,0
329,-40,40,human,absent,right,mirror,diff,1,0.759788446,2,0
330,80,80,snake,present,right,mirror,same,1,0.80200475,2,0
331,-40,40,snake,absent,left,mirror,diff,1,0.78299,2,0
332,-160,160,snake,present,right,mirror,diff,1,1.486176909,2,0
333,160,160,snake,present,right,mirror,diff,1,1.576280903,2,0
334,-40,40,snake,absent,left,original,diff,1,2.347764759,2,0
335,-80,80,human,present,left,mirror,same,1,1.082917029,2,0
336,-120,120,snake,present,right,mirror,same,1,1.309625128,2,0
337,40,40,human,present,right,mirror,same,1,1.024284996,2,0
338,-80,80,human,present,right,mirror,same,1,1.134793141,2,0
339,40,40,snake,present,left,original,diff,1,0.974269078,2,0
340,-80,80,human,present,right,original,diff,1,1.581849451,2,0
341,160,160,snake,absent,left,original,same,1,2.105862948,2,0
342,160,160,snake,present,left,mirror,diff,1,1.395078089,2,0
343,40,40,snake,present,right,mirror,diff,1,0.882599181,2,0
344,-120,120,human,absent,right,original,diff,1,1.834427411,2,0
345,-80,80,human,absent,left,mirror,diff,1,1.015543433,2,0
346,0,0,human,present,left,original,same,1,0.657445316,2,0
347,-40,40,human,absent,left,original,diff,1,0.987976021,2,0
348,40,40,human,present,right,mirror,diff,1,0.742158722,2,0
349,120,120,human,absent,left,original,same,1,0.958906887,2,0
350,0,0,human,present,right,original,diff,1,0.724021739,2,0
351,120,120,snake,present,right,original,same,1,0.944034451,2,0
352,-160,160,snake,present,left,original,diff,1,0.814046963,2,0
353,40,40,human,present,right,original,same,1,0.650714557,2,0
354,0,0,human,absent,right,mirror,diff,1,0.759010235,2,0
355,80,80,human,absent,left,original,diff,1,0.925975873,2,0
356,0,0,snake,absent,left,original,diff,1,0.972536519,2,0
357,-160,160,snake,absent,right,original,diff,1,3.411830411,2,0
358,80,80,snake,present,right,original,diff,1,1.045159211,2,0
359,40,40,snake,present,right,original,same,1,0.816698132,2,0
360,-160,160,snake,absent,right,original,same,1,2.780484336,2,0
361,-120,120,snake,present,right,original,diff,1,1.479196349,2,0
362,-40,40,human,absent,left,original,same,1,1.278350091,2,0
363,-80,80,human,absent,right,mirror,same,1,1.266189724,2,0
364,80,80,human,present,right,original,same,1,1.09136576,2,0
365,160,160,snake,absent,right,mirror,diff,1,1.092115162,2,0
366,-40,40,human,present,left,mirror,same,1,0.81284792,2,0
367,40,40,snake,present,right,original,diff,1,0.95821948,2,0
368,0,0,snake,present,left,original,diff,1,1.002234713,2,0
369,-120,120,snake,absent,left,mirror,diff,1,1.433665538,2,0
370,-40,40,snake,absent,right,mirror,same,1,0.684358507,2,0
371,0,0,human,absent,left,original,same,1,0.642091513,2,0
372,120,120,human,present,left,original,diff,1,0.804439303,2,0
373,160,160,snake,present,left,mirror,same,1,1.063772091,2,0
374,80,80,snake,absent,right,original,diff,1,1.316710713,2,0
375,80,80,snake,absent,left,original,same,1,0.997130757,2,0
376,-120,120,human,present,right,original,diff,1,1.776016734,2,0
377,160,160,human,absent,left,original,diff,1,2.091701624,2,0
378,-160,160,human,absent,right,original,same,0,1.377199294,2,0
379,-160,160,human,present,left,original,same,1,1.285563676,2,0
380,-120,120,human,present,right,original,same,1,0.810379088,2,0
381,120,120,snake,absent,right,mirror,same,1,2.10787047,2,0
382,120,120,human,absent,left,mirror,same,1,1.041475654,2,0
383,-80,80,snake,present,left,original,same,1,1.138433666,2,0
384,-40,40,human,present,left,mirror,diff,1,1.475095973,2,0
385,-80,80,snake,present,right,mirror,same,1,1.035491744,2,0
386,-160,160,human,absent,left,mirror,diff,1,1.199463421,2,0
387,-160,160,snake,present,right,original,same,1,1.492581286,2,0
388,-40,40,human,present,right,mirror,diff,1,0.852955688,2,0
389,-120,120,snake,absent,right,mirror,diff,1,1.355582971,2,0
390,160,160,snake,absent,right,original,same,1,2.59435188,2,0
391,-40,40,human,absent,right,mirror,same,1,1.565399442,2,0
392,80,80,snake,present,left,original,diff,1,0.875478222,2,0
393,-160,160,human,absent,left,original,same,1,1.307449492,2,0
394,40,40,snake,present,left,original,same,1,0.616682597,2,0
395,-120,120,human,absent,right,mirror,same,1,2.497198404,2,0
396,-120,120,snake,absent,left,original,same,1,1.745413059,2,0
397,-40,40,snake,absent,left,original,same,1,0.98017276,2,0
398,40,40,snake,absent,right,mirror,same,1,0.881097824,2,0
399,80,80,snake,present,left,original,same,1,0.834248357,2,0
400,-40,40,snake,present,left,original,same,1,0.712332893,2,0
401,-160,160,snake,present,left,original,same,1,1.106164168,2,0
402,-80,80,human,absent,left,original,diff,1,0.955518716,2,0
403,-160,160,snake,absent,left,mirror,diff,1,1.479007085,2,0
404,120,120,human,present,right,mirror,same,1,0.988720317,2,0
405,80,80,human,absent,right,mirror,same,1,0.694696241,2,0
406,80,80,human,absent,right,original,same,1,0.822459592,2,0
407,80,80,snake,absent,right,mirror,same,1,0.720112086,2,0
408,-80,80,snake,absent,left,original,diff,1,0.927803611,2,0
409,0,0,human,absent,left,original,diff,1,1.674373775,2,0
410,-160,160,snake,present,left,mirror,diff,1,1.257435762,2,0
411,0,0,snake,absent,right,mirror,same,1,0.658777829,2,0
412,80,80,snake,absent,right,mirror,diff,1,0.993568272,2,0
413,-40,40,human,absent,right,original,same,1,1.027561942,2,0
414,80,80,human,absent,left,original,same,1,0.827038054,2,0
415,160,160,snake,present,right,original,diff,1,0.843854923,2,0
416,-40,40,snake,present,right,mirror,same,1,0.802642562,2,0
417,-120,120,snake,present,left,mirror,same,1,1.611821878,2,0
418,40,40,snake,present,left,mirror,same,1,0.703112516,2,0
419,40,40,snake,absent,left,original,diff,0,0.895378032,2,0
420,-120,120,snake,absent,left,mirror,same,1,2.853407153,2,0
421,-40,40,human,present,right,original,diff,1,0.934686438,2,0
422,80,80,human,present,left,original,diff,1,0.857003188,2,0
423,-40,40,snake,present,right,original,diff,1,0.690179043,2,0
424,-160,160,human,present,left,original,diff,1,1.079655034,2,0
425,160,160,snake,present,right,original,same,1,2.562989687,2,0
426,-40,40,human,absent,right,original,diff,1,0.742215246,2,0
427,120,120,snake,present,left,original,same,1,0.979693216,2,0
428,120,120,human,absent,right,mirror,same,1,1.518848642,2,0
429,0,0,snake,absent,left,mirror,same,1,0.670309866,2,0
430,-120,120,human,present,right,mirror,diff,1,0.758855614,2,0
431,0,0,snake,absent,left,original,same,1,0.551063804,2,0
432,160,160,human,present,right,original,same,1,1.53888338,2,0
433,40,40,snake,absent,left,original,same,1,0.610302288,2,0
434,160,160,snake,absent,left,original,diff,1,1.873217618,2,0
435,-80,80,snake,present,right,mirror,diff,1,1.441674109,2,0
436,-40,40,snake,present,left,mirror,same,1,0.835286944,2,0
437,80,80,human,present,right,mirror,diff,1,1.321287352,2,0
438,0,0,human,present,right,mirror,same,1,0.690390189,2,0
439,-40,40,human,absent,left,mirror,same,1,0.623253994,2,0
440,-160,160,human,present,right,mirror,same,1,1.739181901,2,0
441,0,0,human,present,left,mirror,same,1,0.541348931,2,0
442,-160,160,snake,absent,left,mirror,same,1,1.622608888,2,0
443,40,40,snake,present,left,mirror,diff,1,1.440957163,2,0
444,0,0,human,present,left,original,diff,1,0.868162893,2,0
445,80,80,human,present,right,original,diff,1,0.838284552,2,0
446,80,80,snake,absent,left,mirror,diff,1,1.45952446,2,0
447,160,160,snake,absent,left,mirror,same,1,1.144616323,2,0
448,-160,160,human,absent,right,original,diff,1,1.876130621,2,0
449,-80,80,human,absent,right,mirror,diff,1,0.922356499,2,0
450,-80,80,human,absent,left,mirror,same,1,0.919120395,2,0
451,-40,40,human,present,left,original,diff,1,0.776153486,2,0
452,-120,120,snake,absent,right,original,diff,1,1.718851413,2,0
453,120,120,human,absent,right,mirror,diff,1,1.174965456,2,0
454,0,0,snake,absent,left,mirror,diff,1,1.090572598,2,0
455,0,0,snake,present,right,mirror,same,1,0.596491049,2,0
456,80,80,snake,absent,left,mirror,same,0,0.635797996,2,0
457,160,160,human,present,right,mirror,diff,1,3.60502876,2,0
458,-80,80,snake,present,right,original,same,1,0.870590518,2,0
459,-80,80,snake,absent,right,mirror,same,1,0.914909158,2,0
460,40,40,snake,absent,right,original,diff,1,0.908925248,2,0
461,-80,80,snake,absent,left,original,same,1,1.154361829,2,0
462,-160,160,snake,absent,right,mirror,diff,1,1.321477711,2,0
463,80,80,snake,present,left,mirror,diff,1,0.93869747,2,0
464,120,120,snake,present,right,original,diff,1,1.371934153,2,0
465,-80,80,human,absent,left,original,same,1,1.15402633,2,0
466,-40,40,snake,present,right,mirror,diff,1,0.852624566,2,0
467,120,120,snake,present,left,original,diff,1,1.014737142,2,0
468,0,0,snake,present,right,original,same,1,0.622073549,2,0
469,160,160,human,present,left,mirror,diff,1,1.292078549,2,0
470,-120,120,snake,present,left,mirror,diff,1,0.976100098,2,0
471,-40,40,human,absent,left,mirror,diff,1,0.824527284,2,0
472,-120,120,snake,absent,left,original,diff,1,1.310348638,2,0
473,-80,80,snake,present,left,original,diff,1,1.008205859,2,0
474,40,40,human,absent,left,mirror,same,1,1.275865577,2,0
475,-160,160,human,absent,left,mirror,same,1,2.277489828,2,0
476,-80,80,human,absent,right,original,same,1,1.095443163,2,0
477,-120,120,snake,present,left,original,same,1,0.950960675,2,0
478,160,160,snake,absent,left,mirror,diff,1,1.831718989,2,0
479,-80,80,snake,present,left,mirror,same,1,0.865957354,2,0
480,-80,80,snake,absent,right,original,diff,1,2.086727492,2,0
481,80,80,human,present,right,mirror,same,1,1.245140831,2,0
482,-160,160,human,absent,right,mirror,same,1,1.752377573,2,0
483,160,160,snake,present,left,original,diff,1,1.04558223,2,0
484,40,40,snake,present,right,mirror,same,1,0.657735596,2,0
485,-120,120,snake,present,left,original,diff,1,1.461089999,2,0
486,40,40,human,absent,right,mirror,same,1,0.689884753,2,0
487,0,0,human,absent,right,original,same,1,0.572545563,2,0
488,0,0,human,present,left,mirror,diff,1,0.728912361,2,0
489,160,160,human,absent,left,original,same,1,1.02936853,2,0
490,120,120,snake,present,left,mirror,diff,1,0.939290428,2,0
491,-120,120,snake,present,right,mirror,diff,1,1.032972222,2,0
492,-40,40,snake,absent,right,original,diff,1,0.999542701,2,0
493,-120,120,human,present,left,mirror,same,1,1.087979412,2,0
494,-40,40,human,present,left,original,same,1,0.805293002,2,0
495,120,120,human,present,left,mirror,diff,1,0.817923431,2,0
496,-80,80,human,absent,right,original,diff,1,0.740535565,2,0
497,-80,80,human,present,right,original,same,1,0.93436662,2,0
498,-120,120,snake,absent,right,mirror,same,1,6.004578098,2,1
499,-80,80,snake,absent,left,mirror,diff,1,0.642800436,2,0
500,80,80,human,absent,left,mirror,same,1,0.7496418,2,0
501,120,120,snake,absent,left,original,diff,1,1.148886272,2,0
502,40,40,human,absent,right,original,diff,1,0.73812508,2,0
503,160,160,snake,present,left,original,same,1,1.379716992,2,0
504,-120,120,snake,absent,right,original,same,0,1.586400563,2,0
505,-80,80,human,present,left,mirror,diff,1,1.166752669,2,0
506,120,120,snake,absent,right,mirror,diff,1,1.937120991,2,0
507,40,40,snake,absent,right,original,same,1,1.254792981,2,0
508,0,0,snake,present,right,original,diff,1,0.586407856,2,0
509,-120,120,human,present,right,mirror,same,1,1.870304979,2,0
510,-120,120,human,absent,left,mirror,same,1,1.253331738,2,0
511,120,120,snake,absent,left,mirror,diff,1,1.352512064,2,0
512,80,80,human,absent,right,mirror,diff,1,0.86116957,2,0
513,-120,120,human,present,left,mirror,diff,1,0.926349297,2,0
514,160,160,human,absent,left,mirror,same,1,1.207007764,2,0
515,-120,120,human,absent,right,original,same,1,1.329999376,2,0
516,80,80,human,present,left,mirror,diff,1,0.991070631,2,0
517,-80,80,human,present,right,mirror,diff,1,0.87686106,2,0
518,120,120,human,present,right,mirror,diff,1,3.229302743,2,0
519,40,40,human,present,left,original,diff,1,1.192262235,2,0
520,160,160,human,absent,left,mirror,diff,1,3.42978834,2,0
521,-160,160,snake,absent,right,mirror,same,1,3.699744401,2,0
522,160,160,human,present,right,original,diff,1,0.923547883,2,0
523,0,0,snake,absent,right,mirror,diff,1,0.87197372,2,0
524,40,40,snake,absent,left,mirror,diff,1,1.198038646,2,0
525,40,40,human,absent,right,original,same,1,0.657428542,2,0
526,-160,160,human,present,left,mirror,diff,1,0.885243785,2,0
527,120,120,snake,present,right,mirror,same,1,0.984182333,2,0
528,120,120,snake,absent,right,original,same,1,3.274364586,2,0
529,-160,160,snake,absent,left,original,same,1,0.909845682,2,0
530,-40,40,snake,absent,right,original,same,1,0.757982224,2,0
531,120,120,human,absent,right,original,diff,1,0.886316287,2,0
532,-120,120,human,absent,left,mirror,diff,1,0.95894226,2,0
533,0,0,snake,present,right,mirror,diff,1,0.964453919,2,0
534,160,160,human,absent,right,original,same,1,0.942196502,2,0
535,-160,160,human,present,right,original,same,1,1.812241105,2,0
536,80,80,human,present,left,mirror,same,1,1.304042357,2,0
537,160,160,human,present,right,mirror,same,1,3.424391553,2,0
538,-120,120,human,absent,left,original,same,1,0.926816443,2,0
539,-160,160,snake,present,right,mirror,same,1,4.263341632,2,1
540,0,0,snake,present,left,mirror,same,1,0.722513454,2,0
541,0,0,human,present,right,original,same,1,0.705193337,2,0
542,160,160,human,absent,right,original,diff,1,2.346185727,2,0
543,80,80,snake,present,right,original,same,1,0.93919853,2,0
544,40,40,snake,absent,right,mirror,diff,1,0.899817554,2,0
545,-160,160,human,present,left,mirror,same,1,1.511244492,2,0
546,-40,40,snake,absent,right,mirror,diff,1,1.193448149,2,0
547,80,80,human,absent,left,mirror,diff,1,0.962741418,2,0
548,120,120,human,absent,left,original,diff,1,0.907237909,2,0
549,120,120,snake,present,right,mirror,diff,1,1.354952452,2,0
550,-120,120,snake,present,right,original,same,1,1.042184942,2,0
551,-120,120,human,absent,right,mirror,diff,1,0.951558008,2,0
552,0,0,human,absent,left,mirror,same,1,0.652577304,2,0
553,0,0,snake,present,left,original,same,1,0.601727745,2,0
554,40,40,snake,absent,left,mirror,same,1,0.745444056,2,0
555,80,80,human,present,left,original,same,1,0.777214318,2,0
556,0,0,snake,absent,right,original,diff,1,0.624174063,2,0
557,160,160,human,present,left,mirror,same,1,1.317790873,2,0
558,-40,40,snake,present,left,original,diff,1,0.845406604,2,0
559,-80,80,human,present,left,original,diff,1,1.075392378,2,0
560,-80,80,snake,present,right,original,diff,1,1.161235904,2,0
561,-160,160,human,present,right,original,diff,1,1.811229869,2,0
562,0,0,snake,present,left,mirror,diff,1,0.608375723,2,0
563,120,120,human,present,right,original,diff,1,1.247091099,2,0
564,40,40,human,absent,left,mirror,diff,1,0.712596916,2,0
565,-120,120,human,absent,left,original,diff,1,0.960000175,2,0
566,-40,40,human,present,right,original,same,1,0.626456912,2,0
567,160,160,human,absent,right,mirror,diff,1,2.167545831,2,0
568,-40,40,snake,present,right,original,same,1,0.593214102,2,0
569,160,160,human,present,left,original,diff,1,0.97859227,2,0
570,0,0,human,absent,left,mirror,diff,1,1.021512756,2,0
571,120,120,human,absent,right,original,same,1,0.944756138,2,0
572,-160,160,human,absent,left,original,diff,1,0.798608921,2,0
573,-120,120,human,present,left,original,diff,1,0.980755871,2,0
574,120,120,snake,absent,left,original,same,1,1.058349777,2,0
575,-160,160,snake,absent,left,original,diff,1,0.95196243,2,0
576,0,0,human,present,right,mirror,diff,1,0.981801752,2,0
1,-40,40,human,absent,left,mirror,diff,1,1.006849642,3,0
2,160,160,snake,present,left,original,same,1,1.533878616,3,0
3,40,40,snake,present,right,mirror,diff,1,1.200170521,3,0
4,-40,40,snake,absent,right,mirror,diff,1,2.195007124,3,0
5,40,40,snake,present,left,original,diff,1,1.549283473,3,0
6,-40,40,human,absent,right,original,diff,1,1.474383767,3,0
7,-120,120,snake,present,left,original,diff,1,2.215270877,3,0
8,80,80,human,absent,left,original,diff,1,1.337408061,3,0
9,-120,120,snake,absent,right,original,same,1,3.27517197,3,0
10,80,80,snake,absent,right,mirror,same,1,2.118512341,3,0
11,-160,160,human,absent,right,original,diff,1,1.603733079,3,0
12,-160,160,human,absent,left,original,diff,1,1.359246105,3,0
13,-80,80,snake,present,right,original,same,1,1.355151199,3,0
14,120,120,snake,absent,right,original,diff,1,2.481252008,3,0
15,160,160,human,present,left,original,diff,1,2.383187945,3,0
16,160,160,snake,present,left,original,diff,1,2.308473127,3,0
17,-120,120,human,present,right,mirror,diff,1,2.34158429,3,0
18,-80,80,snake,present,right,original,diff,1,2.305367577,3,0
19,120,120,human,absent,left,original,same,1,1.503184502,3,0
20,80,80,snake,present,right,original,same,1,1.276470569,3,0
21,0,0,snake,present,left,original,same,1,0.659724519,3,0
22,-40,40,human,present,left,original,same,1,0.868789401,3,0
23,-120,120,snake,absent,left,original,same,1,2.349404326,3,0
24,-40,40,human,present,right,original,same,1,0.881697711,3,0
25,-120,120,snake,absent,right,original,diff,1,7.423646163,3,1
26,80,80,human,present,right,original,same,1,0.872907282,3,0
27,-160,160,human,present,right,original,diff,1,1.937867841,3,0
28,40,40,human,present,left,original,same,1,0.80889633,3,0
29,-160,160,snake,absent,left,original,diff,1,2.034784644,3,0
30,-80,80,human,absent,right,mirror,diff,1,1.518590818,3,0
31,80,80,snake,present,right,mirror,diff,1,1.331396801,3,0
32,40,40,human,present,left,mirror,diff,1,1.49769217,3,0
33,-80,80,human,present,left,mirror,same,1,1.061571293,3,0
34,160,160,human,present,left,mirror,diff,1,1.468932279,3,0
35,-40,40,snake,present,left,original,same,1,0.838656882,3,0
36,-160,160,snake,present,right,mirror,same,0,1.523903731,3,0
37,80,80,human,absent,right,mirror,same,1,1.090115663,3,0
38,120,120,human,absent,left,mirror,diff,1,1.811086917,3,0
39,-40,40,human,present,right,mirror,same,1,0.705381872,3,0
40,80,80,snake,absent,left,original,same,1,2.0072475,3,0
41,-40,40,snake,present,right,mirror,same,1,1.065590713,3,0
42,160,160,human,absent,left,original,same,1,1.63417958,3,0
43,-160,160,snake,present,left,original,diff,1,1.995612626,3,0
44,-160,160,human,present,right,original,same,1,1.806435885,3,0
45,120,120,snake,present,right,mirror,same,1,1.283293955,3,0
46,160,160,snake,absent,left,original,same,1,2.326451843,3,0
47,-120,120,snake,present,right,original,diff,1,1.529502911,3,0
48,120,120,human,present,left,original,diff,1,1.540206412,3,0
49,-160,160,snake,present,left,mirror,same,1,1.339398079,3,0
50,-80,80,human,present,left,original,diff,1,1.265466943,3,0
51,-40,40,snake,absent,left,mirror,diff,1,3.666307586,3,0
52,120,120,snake,absent,right,original,same,1,1.403341931,3,0
53,120,120,snake,present,left,mirror,diff,1,1.152337897,3,0
54,-40,40,human,present,left,mirror,diff,1,1.327299342,3,0
55,-40,40,human,present,right,original,diff,1,1.469986547,3,0
56,-80,80,human,absent,left,mirror,same,1,1.243499805,3,0
57,-80,80,human,absent,right,mirror,same,1,1.156518137,3,0
58,40,40,human,present,left,mirror,same,1,0.939818838,3,0
59,-120,120,snake,present,left,mirror,diff,1,2.171564886,3,0
60,-80,80,human,present,right,mirror,diff,1,1.725523095,3,0
61,-80,80,snake,absent,left,mirror,diff,1,2.194587751,3,0
62,160,160,human,absent,right,mirror,diff,1,1.897222181,3,0
63,-160,160,snake,present,left,original,same,1,1.49136948,3,0
64,-160,160,snake,absent,right,original,same,1,3.488808021,3,0
65,-80,80,human,absent,left,original,diff,1,1.090817658,3,0
66,80,80,human,present,left,original,diff,1,1.177545879,3,0
67,40,40,human,present,left,original,diff,1,0.903666307,3,0
68,-80,80,human,absent,right,original,same,1,0.876543066,3,0
69,-80,80,snake,present,left,original,same,1,0.760404378,3,0
70,160,160,snake,present,right,original,diff,1,0.89262512,3,0
71,40,40,snake,present,right,original,same,1,0.716406284,3,0
72,160,160,snake,absent,left,mirror,diff,1,2.415775802,3,0
73,-40,40,human,present,left,mirror,same,1,0.699978156,3,0
74,40,40,human,present,right,mirror,diff,1,0.729965535,3,0
75,-80,80,human,present,left,mirror,diff,1,0.838446831,3,0
76,-40,40,snake,present,right,mirror,diff,1,1.029867766,3,0
77,160,160,human,absent,left,original,diff,1,1.951225062,3,0
78,0,0,snake,present,right,original,same,1,0.694969745,3,0
79,-120,120,human,absent,left,original,diff,1,1.209110101,3,0
80,160,160,human,absent,right,mirror,same,1,1.516096459,3,0
81,0,0,snake,absent,left,mirror,same,1,0.638975752,3,0
82,-80,80,human,present,right,mirror,same,1,1.096525146,3,0
83,40,40,human,present,right,original,same,1,0.961379366,3,0
84,-120,120,human,present,right,mirror,same,1,1.490132146,3,0
85,-80,80,snake,present,right,mirror,same,1,1.068092366,3,0
86,0,0,snake,present,left,mirror,same,1,0.60736084,3,0
87,160,160,human,present,right,mirror,same,1,0.946543762,3,0
88,120,120,human,present,left,mirror,same,1,1.0915047,3,0
89,-120,120,human,absent,left,mirror,diff,1,0.971427186,3,0
90,-160,160,human,absent,left,mirror,same,1,2.473503813,3,0
91,40,40,snake,absent,left,original,diff,1,1.669964521,3,0
92,80,80,human,absent,left,original,same,1,1.089928586,3,0
93,-120,120,human,present,left,original,diff,1,1.026562375,3,0
94,80,80,human,absent,right,mirror,diff,1,1.237222699,3,0
95,120,120,human,present,right,original,diff,1,1.603881136,3,0
96,0,0,snake,present,left,original,diff,1,0.848596759,3,0
97,120,120,human,absent,right,original,diff,1,0.988937297,3,0
98,-40,40,human,absent,right,original,same,1,0.692895853,3,0
99,-160,160,human,absent,left,original,same,1,1.975750742,3,0
100,80,80,snake,present,right,original,diff,1,0.964440791,3,0
101,40,40,snake,present,right,original,diff,1,0.93358768,3,0
102,-120,120,human,absent,left,mirror,same,1,0.929974506,3,0
103,-120,120,human,absent,left,original,same,1,2.108251188,3,0
104,-40,40,human,absent,left,original,diff,1,1.420515815,3,0
105,160,160,human,absent,right,original,diff,1,2.250259738,3,0
106,40,40,snake,present,left,mirror,same,1,0.806187543,3,0
107,-160,160,human,absent,right,original,same,1,1.370613674,3,0
108,0,0,human,present,right,mirror,diff,1,1.089445031,3,0
109,80,80,snake,absent,left,mirror,same,1,1.575301393,3,0
110,-120,120,human,absent,right,mirror,diff,1,1.469818433,3,0
111,-120,120,snake,absent,left,mirror,same,1,1.351616064,3,0
112,-80,80,human,present,right,original,diff,1,1.139381815,3,0
113,-120,120,snake,present,left,original,same,1,0.91448468,3,0
114,40,40,human,present,right,mirror,same,1,0.923515063,3,0
115,-160,160,human,absent,left,mirror,diff,1,1.26007125,3,0
116,-40,40,human,present,right,mirror,diff,1,0.975310582,3,0
117,-80,80,snake,present,left,mirror,same,1,0.846891186,3,0
118,-40,40,snake,absent,right,original,same,1,1.179708386,3,0
119,-160,160,snake,present,right,original,diff,1,1.603694788,3,0
120,120,120,snake,absent,left,mirror,diff,1,1.784213841,3,0
121,-160,160,human,present,left,original,same,1,0.74851788,3,0
122,40,40,snake,absent,right,original,same,1,1.077960766,3,0
123,120,120,snake,absent,right,mirror,same,1,1.375875168,3,0
124,-80,80,snake,absent,right,mirror,same,1,1.208011343,3,0
125,-40,40,snake,present,left,mirror,same,1,0.925984625,3,0
126,-120,120,snake,absent,right,mirror,same,1,1.408369305,3,0
127,0,0,snake,absent,left,original,diff,1,1.728520703,3,0
128,40,40,human,present,right,original,diff,1,0.943115841,3,0
129,-120,120,human,absent,right,original,diff,1,1.027142934,3,0
130,-160,160,human,present,left,mirror,same,0,1.180813708,3,0
131,120,120,snake,absent,left,original,diff,1,2.568150531,3,0
132,0,0,human,present,left,original,same,1,0.5983042,3,0
133,120,120,snake,absent,left,original,same,1,1.291870686,3,0
134,80,80,human,absent,left,mirror,same,1,1.059731886,3,0
135,40,40,snake,present,left,mirror,diff,1,1.056811224,3,0
136,0,0,snake,present,right,original,diff,1,0.682206575,3,0
137,40,40,snake,absent,left,mirror,diff,1,0.912382708,3,0
138,80,80,snake,absent,left,mirror,diff,1,1.541910891,3,0
139,80,80,human,present,right,mirror,diff,1,1.036599255,3,0
140,-40,40,snake,present,right,original,diff,1,1.654863436,3,0
141,120,120,human,present,right,mirror,diff,1,1.766206316,3,0
142,-160,160,snake,absent,right,original,diff,1,2.377336046,3,0
143,160,160,snake,present,left,mirror,diff,1,1.693308297,3,0
144,40,40,human,absent,left,mirror,same,1,0.929024899,3,0
145,-80,80,snake,absent,left,original,diff,1,1.580297405,3,0
146,160,160,snake,absent,right,original,diff,1,1.427201719,3,0
147,80,80,human,absent,right,original,same,1,1.026831868,3,0
148,160,160,snake,absent,left,original,diff,1,1.391623547,3,0
149,120,120,snake,present,right,original,diff,1,1.243002392,3,0
150,0,0,human,absent,left,original,diff,1,1.126179214,3,0
151,-40,40,snake,absent,left,original,same,1,0.960303582,3,0
152,-40,40,human,absent,left,mirror,same,1,0.865158357,3,0
153,120,120,human,absent,right,mirror,same,1,1.078711627,3,0
154,-40,40,snake,present,left,mirror,diff,1,0.972413625,3,0
155,80,80,human,present,right,original,diff,1,1.819597642,3,0
156,-40,40,human,present,left,original,diff,1,1.278664803,3,0
157,80,80,snake,present,left,mirror,same,1,0.736291507,3,0
158,120,120,snake,present,left,mirror,same,1,0.692627089,3,0
159,-120,120,snake,present,right,original,same,1,1.185574142,3,0
160,120,120,snake,present,left,original,same,1,1.109170162,3,0
161,-120,120,snake,present,right,mirror,diff,1,1.059155338,3,0
162,80,80,human,present,left,mirror,diff,1,1.18014891,3,0
163,160,160,snake,absent,left,mirror,same,1,1.588212985,3,0
164,80,80,human,absent,left,mirror,diff,1,1.200379843,3,0
165,-80,80,snake,absent,right,original,diff,1,1.749745367,3,0
166,120,120,snake,absent,left,mirror,same,1,1.186823874,3,0
167,-40,40,human,absent,left,original,same,1,0.90908461,3,0
168,80,80,snake,present,left,original,diff,1,1.340281316,3,0
169,-120,120,human,present,left,mirror,diff,1,1.371521709,3,0
170,40,40,human,absent,left,original,same,1,0.917972042,3,0
171,120,120,human,absent,left,original,diff,1,1.785708269,3,0
172,0,0,snake,absent,right,original,same,1,0.616434255,3,0
173,40,40,human,absent,right,original,same,1,0.75559289,3,0
174,-160,160,human,absent,right,mirror,same,1,1.814107863,3,0
175,-120,120,human,absent,right,mirror,same,1,0.864536591,3,0
176,-80,80,snake,present,right,mirror,diff,1,1.442586519,3,0
177,0,0,human,present,left,mirror,diff,1,0.719759812,3,0
178,120,120,human,absent,right,original,same,1,1.098392269,3,0
179,40,40,human,absent,right,original,diff,1,0.872443783,3,0
180,160,160,human,absent,left,mirror,diff,1,1.03313596,3,0
181,-160,160,human,present,left,original,diff,1,1.432036546,3,0
182,-40,40,human,absent,right,mirror,same,1,0.586233543,3,0
183,40,40,snake,absent,right,original,diff,1,1.42269218,3,0
184,40,40,snake,absent,right,mirror,diff,1,2.362726539,3,0
185,160,160,human,present,left,original,same,1,1.506875716,3,0
186,-80,80,snake,absent,right,mirror,diff,1,1.09904722,3,0
187,-40,40,snake,absent,left,mirror,same,1,1.288509865,3,0
188,0,0,snake,absent,right,original,diff,1,1.147921349,3,0
189,0,0,human,absent,right,original,same,1,0.638200458,3,0
190,0,0,snake,absent,left,mirror,diff,1,1.028957179,3,0
191,80,80,snake,absent,right,original,diff,1,1.200665381,3,0
192,0,0,human,absent,right,mirror,diff,1,0.805446164,3,0
193,120,120,human,present,right,mirror,same,1,0.96598445,3,0
194,120,120,human,present,left,mirror,diff,1,1.070299363,3,0
195,-120,120,human,present,right,original,diff,1,1.113885377,3,0
196,120,120,human,absent,right,mirror,diff,1,1.098929796,3,0
197,80,80,human,absent,right,original,diff,1,0.996817868,3,0
198,-120,120,snake,absent,left,mirror,diff,1,2.590184039,3,0
199,80,80,human,present,left,mirror,same,1,0.905137396,3,0
200,160,160,snake,present,right,mirror,diff,1,2.306576101,3,0
201,-160,160,human,present,left,mirror,diff,1,1.624068672,3,0
202,-40,40,snake,present,right,original,same,1,0.804917024,3,0
203,-80,80,human,present,right,original,same,1,0.698750304,3,0
204,0,0,snake,absent,left,original,same,1,0.6508958,3,0
205,0,0,human,present,right,mirror,same,1,0.645393987,3,0
206,-80,80,human,absent,left,original,same,1,0.856379233,3,0
207,80,80,snake,absent,right,original,same,1,1.088557418,3,0
208,160,160,human,absent,left,mirror,same,1,0.990457617,3,0
209,160,160,human,present,right,mirror,diff,1,0.924223621,3,0
210,-160,160,human,present,right,mirror,same,1,2.310542279,3,0
211,0,0,human,absent,left,mirror,same,1,0.706839833,3,0
212,40,40,snake,present,left,original,same,1,0.736327245,3,0
213,160,160,snake,present,right,original,same,1,1.412005454,3,0
214,0,0,snake,present,right,mirror,diff,1,0.837158808,3,0
215,-80,80,human,present,left,original,same,1,0.722441248,3,0
216,40,40,human,absent,right,mirror,same,1,0.710660506,3,0
217,40,40,snake,present,right,mirror,same,1,0.611407245,3,0
218,160,160,snake,absent,right,mirror,diff,1,1.157524997,3,0
219,-80,80,snake,absent,right,original,same,1,0.989959109,3,0
220,0,0,human,absent,left,original,same,1,0.557365344,3,0
221,40,40,snake,absent,right,mirror,same,1,0.586847651,3,0
222,120,120,human,absent,left,mirror,same,1,0.719082251,3,0
223,0,0,snake,absent,right,mirror,diff,1,0.633876537,3,0
224,160,160,human,absent,right,original,same,1,1.085867229,3,0
225,120,120,snake,absent,right,mirror,diff,1,1.0764368,3,0
226,0,0,human,present,right,original,diff,1,0.761720481,3,0
227,120,120,human,present,right,original,same,1,0.721482889,3,0
228,-120,120,human,absent,right,original,same,1,0.853104839,3,0
229,160,160,human,present,right,original,same,1,0.788514423,3,0
230,160,160,human,present,right,original,diff,0,1.198691774,3,0
231,80,80,human,present,left,original,same,1,1.005087545,3,0
232,40,40,snake,absent,left,mirror,same,1,1.217937362,3,0
233,80,80,snake,present,right,mirror,same,1,0.729785022,3,0
234,-80,80,human,absent,left,mirror,diff,1,1.190557026,3,0
235,40,40,human,absent,right,mirror,diff,1,1.982407473,3,0
236,-160,160,snake,present,left,mirror,diff,1,1.568055716,3,0
237,120,120,snake,present,right,mirror,diff,1,1.030768142,3,0
238,160,160,snake,absent,right,original,same,1,1.442716343,3,0
239,0,0,human,present,left,mirror,same,1,0.691541095,3,0
240,80,80,snake,absent,left,original,diff,1,1.358060191,3,0
241,-40,40,snake,absent,right,original,diff,1,1.541525797,3,0
242,0,0,human,present,left,original,diff,1,0.731460692,3,0
243,80,80,snake,present,left,original,same,1,0.908059516,3,0
244,-120,120,human,present,left,original,same,1,0.812167806,3,0
245,-120,120,snake,present,right,mirror,same,0,0.913943506,3,0
246,120,120,human,present,left,original,same,1,2.372813743,3,0
247,80,80,human,present,right,mirror,same,1,1.088131845,3,0
248,120,120,snake,present,left,original,diff,1,1.63400162,3,0
249,-160,160,snake,absent,right,mirror,diff,1,2.066377311,3,0
250,-40,40,snake,present,left,original,diff,1,1.340184313,3,0
251,0,0,human,absent,left,mirror,diff,1,0.789507061,3,0
252,0,0,snake,present,right,mirror,same,1,0.566772069,3,0
253,-40,40,human,absent,right,mirror,diff,1,1.055832443,3,0
254,-40,40,snake,absent,left,original,diff,1,1.657019744,3,0
255,-120,120,human,present,left,mirror,same,1,1.786583483,3,0
256,-40,40,snake,absent,right,mirror,same,1,0.988241867,3,0
257,-160,160,snake,present,right,original,same,0,1.022849645,3,0
258,0,0,human,absent,right,original,diff,0,0.768354966,3,0
259,-80,80,snake,present,left,mirror,diff,1,2.250217801,3,0
260,-160,160,snake,present,right,mirror,diff,1,2.992552295,3,0
261,-160,160,human,present,right,mirror,diff,1,2.915906902,3,0
262,80,80,snake,absent,right,mirror,diff,1,2.195198577,3,0
263,-80,80,snake,absent,left,mirror,same,1,1.440657767,3,0
264,40,40,snake,absent,left,original,same,1,1.341833726,3,0
265,160,160,human,present,left,mirror,same,1,1.683069025,3,0
266,40,40,human,absent,left,mirror,diff,1,1.035065442,3,0
267,-80,80,human,absent,right,original,diff,1,1.276350592,3,0
268,40,40,human,absent,left,original,diff,1,0.959113292,3,0
269,80,80,snake,present,left,mirror,diff,1,1.109857205,3,0
270,160,160,snake,present,right,mirror,same,1,0.991780648,3,0
271,160,160,snake,absent,right,mirror,same,1,1.027527663,3,0
272,-80,80,snake,absent,left,original,same,1,1.038630115,3,0
273,-120,120,human,present,right,original,same,1,1.060596159,3,0
274,120,120,snake,present,right,original,same,1,0.875629926,3,0
275,0,0,human,absent,right,mirror,same,1,0.697338657,3,0
276,-160,160,human,absent,right,mirror,diff,1,0.859038424,3,0
277,-160,160,snake,absent,left,mirror,diff,1,1.308842541,3,0
278,0,0,human,present,right,original,same,1,0.575780572,3,0
279,-160,160,snake,absent,left,mirror,same,1,1.260070885,3,0
280,-160,160,snake,absent,left,original,same,1,1.263276356,3,0
281,-120,120,snake,present,left,mirror,same,1,1.83404487,3,0
282,160,160,snake,present,left,mirror,same,1,0.932180774,3,0
283,-80,80,snake,present,left,original,diff,1,0.975467392,3,0
284,-160,160,snake,absent,right,mirror,same,1,1.660771494,3,0
285,0,0,snake,absent,right,mirror,same,1,0.687236501,3,0
286,-120,120,snake,absent,right,mirror,diff,1,1.492669172,3,0
287,-120,120,snake,absent,left,original,diff,0,1.395145189,3,0
288,0,0,snake,present,left,mirror,diff,1,0.887636401,3,0
289,80,80,snake,absent,left,mirror,diff,1,1.212158033,3,0
290,40,40,snake,present,right,original,diff,1,0.965526421,3,0
291,120,120,human,present,left,mirror,diff,1,1.158450536,3,0
292,0,0,snake,present,left,original,diff,1,0.804762403,3,0
293,120,120,snake,present,right,original,diff,1,1.298741844,3,0
294,120,120,human,absent,right,original,same,1,1.027206022,3,0
295,-160,160,human,absent,left,original,same,1,1.035869545,3,0
296,80,80,human,present,right,original,diff,1,0.903463549,3,0
297,40,40,human,absent,right,original,same,1,0.820320058,3,0
298,-160,160,human,present,right,mirror,same,0,1.155915333,3,0
299,-160,160,snake,absent,left,original,diff,1,4.994101059,3,1
300,80,80,snake,present,right,mirror,same,1,1.123766176,3,0
301,-40,40,snake,absent,right,mirror,diff,1,1.825777017,3,0
302,-80,80,human,absent,left,mirror,same,1,1.322376993,3,0
303,160,160,snake,present,right,mirror,same,1,1.187400786,3,0
304,-160,160,snake,present,left,original,diff,1,2.055050221,3,0
305,0,0,snake,present,right,mirror,same,1,0.694096354,3,0
306,-40,40,human,present,right,original,same,1,0.626834348,3,0
307,-120,120,human,absent,left,mirror,diff,1,1.256217391,3,0
308,-40,40,snake,present,right,mirror,same,1,0.806070848,3,0
309,160,160,snake,absent,left,mirror,diff,1,1.868791224,3,0
310,80,80,snake,present,left,mirror,same,1,0.830195023,3,0
311,-80,80,human,present,left,mirror,diff,1,0.906809419,3,0
312,0,0,human,absent,right,original,diff,1,0.757555192,3,0
313,80,80,snake,present,left,original,diff,1,1.724355414,3,0
314,160,160,human,absent,right,mirror,diff,1,1.8912999,3,0
315,-40,40,human,present,left,original,diff,1,1.109438926,3,0
316,-120,120,human,present,left,original,diff,1,1.140827011,3,0
317,80,80,human,present,right,original,same,1,0.923924955,3,0
318,120,120,snake,absent,left,mirror,same,1,1.375939351,3,0
319,80,80,snake,present,right,mirror,diff,1,1.179576375,3,0
320,80,80,snake,absent,right,original,same,1,0.939469846,3,0
321,-120,120,snake,absent,left,original,same,1,0.896651468,3,0
322,40,40,human,present,left,mirror,same,1,0.804813457,3,0
323,-40,40,snake,absent,left,mirror,same,1,0.904419356,3,0
324,160,160,human,present,left,original,same,1,0.910190297,3,0
325,160,160,human,absent,left,original,diff,1,0.996018871,3,0
326,0,0,snake,present,right,original,diff,1,0.890627444,3,0
327,-120,120,human,present,left,mirror,diff,1,1.982249934,3,0
328,80,80,human,present,left,mirror,diff,1,1.339426523,3,0
329,-40,40,snake,present,right,original,diff,1,1.102974742,3,0
330,-160,160,human,absent,right,original,same,1,1.489142061,3,0
331,120,120,human,present,right,mirror,diff,1,1.405189726,3,0
332,40,40,snake,absent,left,mirror,diff,1,1.558797412,3,0
333,40,40,human,absent,left,mirror,diff,1,0.841398125,3,0
334,-120,120,human,absent,right,original,same,1,0.994117834,3,0
335,40,40,snake,present,left,original,diff,1,1.100351654,3,0
336,0,0,snake,absent,right,original,diff,1,0.791183825,3,0
337,-40,40,human,absent,left,mirror,diff,1,1.138228356,3,0
338,-80,80,snake,absent,left,original,diff,1,1.400374592,3,0
339,160,160,snake,absent,right,original,diff,1,1.843740051,3,0
340,80,80,snake,present,left,original,same,1,0.859119746,3,0
341,120,120,snake,present,left,original,same,1,0.768451969,3,0
342,-40,40,human,absent,left,original,diff,1,1.039005728,3,0
343,-160,160,human,present,left,original,diff,1,1.516748858,3,0
344,-80,80,snake,absent,left,mirror,same,1,1.67692393,3,0
345,-80,80,snake,present,left,original,same,1,1.061712057,3,0
346,-120,120,snake,present,right,mirror,diff,1,2.169932612,3,0
347,160,160,snake,absent,left,mirror,same,1,1.556592603,3,0
348,40,40,human,absent,right,original,diff,1,1.101709694,3,0
349,80,80,human,present,left,original,diff,1,1.31822228,3,0
350,0,0,human,absent,left,original,same,1,0.615111223,3,0
351,80,80,snake,absent,left,mirror,same,1,0.833381166,3,0
352,-160,160,snake,present,right,original,same,1,0.85408362,3,0
353,120,120,snake,absent,right,original,diff,1,1.223849066,3,0
354,-40,40,human,absent,left,mirror,same,1,0.829672448,3,0
355,80,80,human,absent,right,original,same,1,0.977369523,3,0
356,160,160,snake,present,left,mirror,diff,1,1.577928128,3,0
357,-120,120,human,present,right,mirror,same,1,1.278100655,3,0
358,160,160,snake,present,right,original,diff,1,1.256811808,3,0
359,160,160,snake,absent,right,mirror,same,1,1.387452424,3,0
360,-40,40,snake,absent,left,original,diff,1,1.057761196,3,0
361,120,120,human,present,right,mirror,same,1,1.027166273,3,0
362,-40,40,snake,present,left,original,same,1,0.760609689,3,0
363,40,40,snake,absent,left,original,same,1,0.741034437,3,0
364,120,120,human,absent,right,original,diff,1,0.901284632,3,0
365,-120,120,snake,absent,right,original,same,1,1.394483673,3,0
366,160,160,snake,present,left,original,same,1,1.642501405,3,0
367,0,0,human,present,right,mirror,diff,1,0.792332908,3,0
368,-40,40,snake,present,left,mirror,same,1,0.754852605,3,0
369,0,0,human,present,left,mirror,diff,1,0.662171471,3,0
370,-120,120,human,absent,right,mirror,same,1,0.849011027,3,0
371,0,0,human,present,left,original,same,1,0.667327939,3,0
372,120,120,human,absent,right,mirror,same,1,1.06348947,3,0
373,40,40,snake,present,left,original,same,1,0.680683702,3,0
374,80,80,human,present,left,original,same,1,0.715908871,3,0
375,160,160,human,present,right,mirror,diff,1,1.359533832,3,0
376,120,120,human,present,left,mirror,same,1,0.9485728,3,0
377,80,80,snake,absent,left,original,diff,1,1.405655048,3,0
378,80,80,human,absent,right,mirror,diff,1,1.308045731,3,0
379,-120,120,snake,present,left,original,diff,1,2.116589423,3,0
380,-80,80,snake,present,right,mirror,diff,1,1.512062088,3,0
381,-160,160,human,present,left,mirror,diff,1,1.66298542,3,0
382,-40,40,human,present,right,mirror,diff,1,1.054154221,3,0
383,-80,80,snake,present,right,mirror,same,1,0.923096784,3,0
384,160,160,snake,absent,right,mirror,diff,1,1.453784516,3,0
385,120,120,human,present,left,original,diff,1,1.324953039,3,0
386,40,40,snake,present,right,original,same,1,0.667343256,3,0
387,40,40,human,absent,right,mirror,diff,1,0.877347169,3,0
388,-160,160,snake,present,right,mirror,same,0,1.223957374,3,0
389,-80,80,human,present,left,mirror,same,1,1.012371148,3,0
390,160,160,human,absent,right,original,same,1,1.953901393,3,0
391,-80,80,snake,present,right,original,same,1,0.909138217,3,0
392,-120,120,snake,absent,right,mirror,diff,1,1.457306522,3,0
393,-120,120,snake,absent,left,mirror,same,1,1.139630521,3,0
394,160,160,human,present,right,original,diff,1,1.910440827,3,0
395,-160,160,snake,present,right,original,diff,1,1.524003286,3,0
396,-120,120,snake,present,right,original,diff,1,1.142819582,3,0
397,-40,40,snake,absent,left,original,same,1,0.986392613,3,0
398,-80,80,snake,absent,right,mirror,diff,1,1.340807903,3,0
399,40,40,snake,absent,right,original,same,1,0.985631177,3,0
400,80,80,snake,present,left,mirror,diff,1,1.213283047,3,0
401,120,120,snake,present,left,mirror,same,1,0.977357489,3,0
402,160,160,human,present,right,mirror,same,1,1.235091188,3,0
403,-80,80,human,absent,right,mirror,diff,1,1.369330027,3,0
404,0,0,human,present,right,original,diff,1,0.8852106,3,0
405,40,40,snake,present,right,mirror,diff,1,1.071208127,3,0
406,0,0,human,absent,left,original,diff,1,1.776977281,3,0
407,160,160,snake,present,left,original,diff,1,1.284584166,3,0
408,-40,40,human,present,left,mirror,diff,1,1.384496025,3,0
409,160,160,human,present,left,original,diff,1,1.364894152,3,0
410,-120,120,human,present,left,original,same,1,0.919094139,3,0
411,-120,120,snake,absent,right,mirror,same,1,1.796424897,3,0
412,-120,120,snake,absent,left,mirror,diff,1,1.067244138,3,0
413,-80,80,snake,absent,left,original,same,1,1.131257642,3,0
414,120,120,snake,present,right,mirror,diff,1,1.223056998,3,0
415,80,80,snake,present,right,original,same,1,0.96940143,3,0
416,120,120,human,absent,left,original,diff,1,1.547889695,3,0
417,40,40,human,absent,left,original,diff,1,1.019607707,3,0
418,-160,160,human,present,right,original,same,1,0.881256092,3,0
419,80,80,human,absent,right,original,diff,1,0.916077933,3,0
420,-80,80,snake,present,left,mirror,diff,1,1.339392244,3,0
421,-120,120,human,present,right,original,same,1,0.877018599,3,0
422,-160,160,snake,present,left,original,same,1,0.939992787,3,0
423,-40,40,snake,present,right,original,same,1,0.740333901,3,0
424,0,0,human,absent,left,mirror,diff,1,0.801104009,3,0
425,-40,40,human,absent,right,original,diff,1,0.819206349,3,0
426,0,0,snake,absent,left,original,diff,1,1.247494062,3,0
427,0,0,snake,absent,left,original,same,1,0.744073982,3,0
428,80,80,human,absent,left,mirror,diff,1,1.108249729,3,0
429,-80,80,human,absent,right,original,diff,1,1.091001817,3,0
430,40,40,human,absent,left,mirror,same,1,0.852787574,3,0
431,-80,80,human,present,right,original,same,1,0.739259941,3,0
432,-160,160,snake,absent,left,mirror,diff,1,1.147906762,3,0
433,-40,40,snake,present,left,mirror,diff,1,0.683441355,3,0
434,120,120,snake,present,left,mirror,diff,1,1.190786041,3,0
435,80,80,human,absent,right,mirror,same,1,1.026451879,3,0
436,120,120,human,absent,left,mirror,diff,1,1.117209366,3,0
437,40,40,human,present,right,mirror,same,1,0.640799479,3,0
438,-120,120,human,absent,left,original,same,1,1.031180952,3,0
439,80,80,snake,present,right,original,diff,1,0.959753657,3,0
440,-40,40,human,absent,left,original,same,1,0.706925166,3,0
441,-160,160,human,present,left,original,same,1,0.731806037,3,0
442,-160,160,human,present,right,original,diff,1,1.175621137,3,0
443,120,120,snake,present,left,original,diff,1,1.050675975,3,0
444,-80,80,human,present,right,mirror,diff,1,0.90672518,3,0
445,-80,80,snake,absent,left,mirror,diff,1,1.235135314,3,0
446,-40,40,human,present,left,mirror,same,1,0.769464665,3,0
447,80,80,human,present,right,mirror,same,1,0.689267727,3,0
448,-120,120,human,present,right,original,diff,1,1.175049696,3,0
449,0,0,snake,absent,left,mirror,diff,1,0.886326498,3,0
450,80,80,snake,absent,right,mirror,same,1,0.849126992,3,0
451,-40,40,snake,absent,right,mirror,same,1,0.6993728,3,0
452,160,160,snake,present,right,original,same,0,1.609731576,3,0
453,-160,160,human,present,right,mirror,diff,1,2.017241713,3,0
454,-120,120,snake,present,right,mirror,same,1,1.485925285,3,0
455,-80,80,snake,absent,right,mirror,same,1,0.755959021,3,0
456,80,80,snake,absent,left,original,same,1,1.158181772,3,0
457,-120,120,snake,present,right,original,same,1,0.774267765,3,0
458,-160,160,human,absent,right,mirror,diff,1,1.39467622,3,0
459,-40,40,snake,absent,right,original,same,1,1.170821683,3,0
460,-120,120,snake,present,left,original,same,1,0.95831393,3,0
461,-80,80,snake,absent,right,original,diff,1,1.089210911,3,0
462,120,120,human,absent,left,original,same,1,0.975801067,3,0
463,-40,40,human,absent,right,original,same,1,0.850088269,3,0
464,-40,40,snake,present,right,mirror,diff,1,1.495014381,3,0
